Cycle,Time,Temp_C,Press_hPa,Alt_m,humidity,MaxAlt_m,AccelX,AccelY,AccelZ,gyroX,gyroY,gyroZ,EulerX,EulerY,EulerZ,Stage,GPS_Lat,GPS_Lon,GPS_Valid,GPS_Sats,KF_Alt,KF_Vel,KF_Acc,KF_P_Alt,KF_P_Vel,KF_P_Acc,KF_Likelihood,KF_LogLikelihood,KF_RejectThresh,KF_Interval,KF_Iter
23228,2120.330,50.27,908.98,5.444,19.495,7.756,0.000,-0.280,0.070,0.000,0.187,-0.062,352.06,1.37,-96.75,1,,0,0,0,0,0,0,0,0,0,031.044397,-103.534966,1,11
23229,2120.381,50.27,908.98,5.444,19.495,7.756,0.030,-0.270,0.080,0.187,0.062,0.125,352.06,1.37,-96.75,1,,0,0,0,0,0,0,0,0,0,031.044397,-103.534966,1,11
23230,2120.434,50.27,909.00,5.311,19.389,7.756,0.040,-0.300,0.050,0.187,-0.187,0.062,352.06,1.37,-96.75,1,,0,0,0,0,0,0,0,0,0,031.044397,-103.534966,1,11
23231,2120.895,50.24,908.94,5.838,19.458,7.756,0.010,-0.310,0.040,0.187,0.187,0.062,352.06,1.37,-96.75,1,,0,0,0,0,0,0,0,0,0,031.044397,-103.534966,1,11
23232,2121.357,50.27,908.98,5.410,19.459,7.756,0.030,-0.290,0.050,0.125,-0.375,-0.125,352.06,1.37,-96.75,1,,0,0,0,0,0,0,0,0,0,031.044395,-103.534966,1,11
23233,2121.411,50.27,908.98,5.478,19.460,7.756,0.010,-0.280,0.060,0.125,-0.375,0.062,352.06,1.37,-96.75,1,,0,0,0,0,0,0,0,0,0,031.044395,-103.534966,1,11
23234,2121.462,50.27,908.98,5.478,19.460,7.756,0.000,-0.290,0.000,0.187,-0.375,0.000,352.06,1.37,-96.75,1,,0,0,0,0,0,0,0,0,0,031.044395,-103.534966,1,11
23235,2121.924,50.24,908.94,5.856,19.481,7.756,0.020,-0.300,0.050,0.187,-0.250,-0.125,352.06,1.37,-96.75,1,,0,0,0,0,0,0,0,0,0,031.044395,-103.534966,1,11
23236,2121.978,50.24,908.94,5.856,19.481,7.756,0.010,-0.300,0.060,0.062,-0.187,0.125,352.06,1.37,-96.75,1,,0,0,0,0,0,0,0,0,0,031.044395,-103.534966,1,11
23237,2122.030,50.20,908.89,6.266,19.492,7.756,0.020,-0.280,0.030,0.062,-0.562,-0.062,352.06,1.37,-96.75,1,,0,0,0,0,0,0,0,0,0,031.044395,-103.534966,1,11
23238,2122.081,50.20,908.89,6.266,19.492,7.756,0.020,-0.290,0.000,0.125,-0.312,0.125,352.06,1.37,-96.75,1,,0,0,0,0,0,0,0,0,0,031.044395,-103.534966,1,11
23239,2122.133,50.27,909.00,5.276,19.447,7.756,0.000,-0.300,0.030,0.125,-0.125,0.125,352.06,1.37,-96.75,1,,0,0,0,0,0,0,0,0,0,031.044395,-103.534966,1,11
23240,2122.183,50.27,909.00,5.276,19.447,7.756,-0.010,-0.320,0.020,0.000,0.187,0.125,352.06,1.37,-96.75,1,,0,0,0,0,0,0,0,0,0,031.044395,-103.534966,1,11
23241,2122.233,50.27,909.01,5.177,19.519,7.756,0.050,-0.290,0.040,-0.062,0.437,0.187,352.06,1.37,-96.75,1,,0,0,0,0,0,0,0,0,0,031.044395,-103.534966,1,11
23242,2122.283,50.27,909.01,5.177,19.519,7.756,0.040,-0.270,0.010,-0.125,0.625,0.062,352.06,1.37,-96.75,1,,0,0,0,0,0,0,0,0,0,031.044395,-103.534966,1,11
23243,2122.337,50.27,909.00,5.294,19.530,7.756,0.000,-0.290,0.050,-0.125,0.687,0.125,352.00,1.37,-96.75,1,,0,0,0,0,0,0,0,0,0,031.044395,-103.534966,1,11
23244,2122.390,50.27,909.00,5.027,19.483,7.756,0.030,-0.270,0.110,0.062,0.437,0.187,352.00,1.37,-96.75,1,,0,0,0,0,0,0,0,0,0,031.044395,-103.534966,1,11
23245,2122.441,50.27,909.02,5.060,19.483,7.756,0.030,-0.290,0.110,-0.062,0.062,0.000,352.00,1.37,-96.75,1,,0,0,0,0,0,0,0,0,0,031.044395,-103.534966,1,11
23246,2122.515,50.27,908.96,5.612,19.518,7.756,0.070,-0.300,0.060,0.062,0.000,0.187,352.00,1.37,-96.75,1,,0,0,0,0,0,0,0,0,0,031.044395,-103.534966,1,11
23247,2122.978,50.24,908.94,5.840,19.506,7.756,0.000,-0.290,0.070,0.062,1.250,0.062,351.94,1.37,-96.75,1,,0,0,0,0,0,0,0,0,0,031.044395,-103.534966,1,11
23248,2123.029,50.21,908.88,6.383,19.504,7.756,0.020,-0.300,0.080,0.125,0.937,0.062,351.87,1.37,-96.75,1,,0,0,0,0,0,0,0,0,0,031.044395,-103.534966,1,11
23249,2123.080,50.21,908.88,6.383,19.504,7.756,0.030,-0.300,0.070,0.000,0.750,0.000,351.81,1.44,-96.75,1,,0,0,0,0,0,0,0,0,0,031.044395,-103.534966,1,11
23250,2123.130,50.27,909.01,5.193,19.565,7.756,0.060,-0.290,0.030,0.250,0.437,0.062,351.75,1.44,-96.75,1,,0,0,0,0,0,0,0,0,0,031.044395,-103.534966,1,11
23251,2123.180,50.27,909.01,5.193,19.565,7.756,0.070,-0.300,0.000,0.000,0.500,0.125,351.75,1.44,-96.75,1,,0,0,0,0,0,0,0,0,0,031.044395,-103.534966,1,11
23252,2123.231,50.27,908.98,5.428,19.542,7.756,0.070,-0.290,-0.010,0.000,0.312,0.000,351.75,1.44,-96.75,1,,0,0,0,0,0,0,0,0,0,031.044395,-103.534966,1,11
23253,2123.284,50.27,908.98,5.428,19.542,7.756,0.060,-0.300,0.030,0.062,0.000,0.000,351.75,1.44,-96.75,1,,0,0,0,0,0,0,0,0,0,031.044395,-103.534966,1,11
23254,2123.337,50.27,909.01,5.144,19.495,7.756,0.040,-0.310,0.050,-0.125,0.437,-0.062,351.75,1.44,-96.75,1,,0,0,0,0,0,0,0,0,0,031.044395,-103.534966,1,11
23255,2123.388,50.27,909.01,5.144,19.459,7.756,0.020,-0.290,0.040,-0.062,0.000,-0.062,351.75,1.44,-96.75,1,,0,0,0,0,0,0,0,0,0,031.044395,-103.534966,1,11
23256,2123.440,50.27,909.01,5.211,19.459,7.756,0.020,-0.300,0.070,-0.125,-0.187,0.000,351.75,1.44,-96.75,1,,0,0,0,0,0,0,0,0,0,031.044395,-103.534966,1,11
23257,2123.490,50.27,909.01,5.227,19.519,7.756,-0.040,-0.310,0.080,0.125,0.000,0.125,351.75,1.44,-96.75,1,,0,0,0,0,0,0,0,0,0,031.044395,-103.534966,1,11
23258,2123.540,50.27,909.00,5.227,19.519,7.756,-0.030,-0.320,0.030,0.125,0.312,0.187,351.75,1.44,-96.75,1,,0,0,0,0,0,0,0,0,0,031.044395,-103.534966,1,11
23259,2124.070,50.21,908.88,6.350,19.516,7.756,0.000,-0.290,0.020,0.125,-0.437,-0.125,351.44,1.44,-96.75,1,,0,0,0,0,0,0,0,0,0,031.044395,-103.534966,1,11
23260,2124.155,50.27,909.00,5.260,19.542,7.756,0.020,-0.290,0.000,0.187,-0.437,-0.062,351.44,1.44,-96.75,1,,0,0,0,0,0,0,0,0,0,031.044395,-103.534966,1,12
23261,2124.222,50.27,908.98,5.462,19.507,7.756,0.000,-0.320,0.000,-0.062,-0.750,0.062,351.50,1.44,-96.75,1,,0,0,0,0,0,0,0,0,0,031.044395,-103.534966,1,12
23262,2124.272,50.27,908.98,5.462,19.507,7.756,-0.010,-0.290,0.000,0.000,-0.250,-0.062,351.50,1.44,-96.75,1,,0,0,0,0,0,0,0,0,0,031.044395,-103.534966,1,12
23263,2124.326,50.27,909.00,5.311,19.494,7.756,-0.040,-0.280,0.020,-0.125,0.687,0.125,351.50,1.44,-96.75,1,,0,0,0,0,0,0,0,0,0,031.044395,-103.534966,1,12
23264,2124.377,50.27,909.00,5.311,19.494,7.756,-0.010,-0.290,0.080,0.062,1.062,0.187,351.44,1.44,-96.75,1,,0,0,0,0,0,0,0,0,0,031.044395,-103.534966,1,12
23265,2124.427,50.27,908.99,5.360,19.483,7.756,0.020,-0.310,0.050,-0.125,1.687,0.125,351.37,1.44,-96.75,1,,0,0,0,0,0,0,0,0,0,031.044395,-103.534966,1,12
23266,2124.478,50.27,908.99,5.360,19.483,7.756,0.020,-0.300,0.020,0.062,1.562,0.187,351.25,1.44,-96.75,1,,0,0,0,0,0,0,0,0,0,031.044395,-103.534966,1,12
23267,2124.529,50.27,908.96,5.644,19.543,7.756,0.040,-0.300,0.050,-0.062,1.125,0.000,351.19,1.50,-96.75,1,,0,0,0,0,0,0,0,0,0,031.044395,-103.534966,1,12
23268,2124.580,50.27,908.96,5.644,19.543,7.756,0.060,-0.290,0.040,0.062,0.875,0.062,351.12,1.50,-96.75,1,,0,0,0,0,0,0,0,0,0,031.044395,-103.534966,1,12
23269,2125.044,50.21,908.80,7.101,19.504,7.756,-0.070,-0.300,0.050,0.000,0.000,0.000,351.37,1.44,-96.75,1,,0,0,0,0,0,0,0,0,0,031.044395,-103.534966,1,12
23270,2125.095,50.27,908.91,6.126,19.495,7.756,-0.080,-0.280,0.120,0.000,0.937,-0.062,351.37,1.44,-96.75,1,,0,0,0,0,0,0,0,0,0,031.044395,-103.534966,1,12
23271,2125.145,50.27,908.91,6.126,19.495,7.756,-0.040,-0.280,0.060,0.000,1.437,0.000,351.31,1.44,-96.75,1,,0,0,0,0,0,0,0,0,0,031.044395,-103.534966,1,12
23272,2125.195,50.27,908.94,5.845,19.494,7.756,-0.010,-0.290,0.070,0.062,1.125,0.125,351.25,1.50,-96.75,1,,0,0,0,0,0,0,0,0,0,031.044395,-103.534966,1,12
23273,2125.246,50.27,908.94,5.845,19.494,7.756,0.030,-0.310,-0.030,-0.062,0.937,0.250,351.19,1.50,-96.75,1,,0,0,0,0,0,0,0,0,0,031.044395,-103.534966,1,12
23274,2125.296,50.27,908.91,6.061,19.494,7.756,0.050,-0.330,0.010,0.062,0.500,0.125,351.12,1.50,-96.75,1,,0,0,0,0,0,0,0,0,0,031.044395,-103.534966,1,12
23275,2125.346,50.27,908.91,6.061,19.494,7.756,0.060,-0.300,0.000,0.000,0.687,0.125,351.12,1.50,-96.75,1,,0,0,0,0,0,0,0,0,0,031.044395,-103.534966,1,12
23276,2125.399,50.27,908.97,5.560,19.495,7.756,0.030,-0.290,0.010,0.062,0.812,0.250,351.06,1.50,-96.75,1,,0,0,0,0,0,0,0,0,0,031.044395,-103.534966,1,12
23277,2125.452,50.27,908.97,5.560,19.495,7.756,0.070,-0.300,0.010,-0.187,1.062,-0.062,351.00,1.50,-96.75,1,,0,0,0,0,0,0,0,0,0,031.044395,-103.534966,1,12
23278,2125.503,50.27,908.96,5.627,19.507,7.756,0.050,-0.290,0.040,-0.125,1.250,-0.062,350.94,1.50,-96.75,1,,0,0,0,0,0,0,0,0,0,031.044395,-103.534966,1,12
23279,2125.555,50.27,908.96,5.627,19.507,7.756,0.000,-0.280,0.040,-0.062,0.437,0.062,350.94,1.50,-96.75,1,,0,0,0,0,0,0,0,0,0,031.044395,-103.534966,1,12
23280,2125.605,50.27,908.97,5.576,19.495,7.756,0.020,-0.250,0.060,0.125,-0.250,-0.062,350.94,1.50,-96.75,1,,0,0,0,0,0,0,0,0,0,031.044395,-103.534966,1,12
23281,2126.101,50.27,908.94,5.859,19.507,7.756,-0.010,-0.300,0.050,0.000,0.437,0.125,350.81,1.50,-96.75,1,,0,0,0,0,0,0,0,0,0,031.044394,-103.534966,1,12
23282,2126.152,50.27,908.94,5.859,19.507,7.756,0.010,-0.280,0.050,0.125,0.187,0.187,350.81,1.50,-96.75,1,,0,0,0,0,0,0,0,0,0,031.044394,-103.534966,1,12
23283,2126.203,50.27,908.97,5.561,19.506,7.756,0.000,-0.300,0.050,0.062,0.312,0.187,350.81,1.50,-96.75,1,,0,0,0,0,0,0,0,0,0,031.044394,-103.534966,1,12
23284,2126.254,50.27,908.97,5.561,19.506,7.756,0.030,-0.290,0.030,-0.062,0.312,0.000,350.81,1.50,-96.75,1,,0,0,0,0,0,0,0,0,0,031.044394,-103.534966,1,12
23285,2126.304,50.27,908.93,5.959,19.507,7.756,0.060,-0.270,0.020,0.062,0.437,-0.062,350.81,1.50,-96.75,1,,0,0,0,0,0,0,0,0,0,031.044394,-103.534966,1,12
23286,2126.357,50.27,908.93,5.959,19.507,7.756,0.030,-0.300,-0.010,0.125,0.062,0.000,350.81,1.50,-96.75,1,,0,0,0,0,0,0,0,0,0,031.044394,-103.534966,1,12
23287,2126.410,50.27,908.95,5.743,19.519,7.756,0.000,-0.290,0.010,-0.062,-0.250,0.000,350.81,1.50,-96.75,1,,0,0,0,0,0,0,0,0,0,031.044394,-103.534966,1,12
23288,2126.461,50.27,908.95,5.743,19.519,7.756,-0.010,-0.280,0.040,0.000,0.000,0.062,350.81,1.50,-96.75,1,,0,0,0,0,0,0,0,0,0,031.044394,-103.534966,1,12
23289,2126.515,50.27,908.96,5.628,19.471,7.756,-0.030,-0.280,0.050,-0.062,0.187,0.000,350.81,1.50,-96.75,1,,0,0,0,0,0,0,0,0,0,031.044394,-103.534966,1,12
23290,2126.565,50.27,908.96,5.628,19.471,7.756,-0.010,-0.290,0.050,-0.062,0.625,0.000,350.81,1.50,-96.75,1,,0,0,0,0,0,0,0,0,0,031.044394,-103.534966,1,12
23291,2126.615,50.27,908.94,5.795,19.518,7.756,0.000,-0.310,0.050,0.125,0.500,0.125,350.81,1.50,-96.75,1,,0,0,0,0,0,0,0,0,0,031.044394,-103.534966,1,12
23292,2127.079,50.20,908.89,6.316,19.516,7.756,0.010,-0.300,0.070,-0.125,-0.187,-0.062,350.75,1.50,-96.75,1,,0,0,0,0,0,0,0,0,0,031.044394,-103.534966,1,12
23293,2127.130,50.27,908.98,5.492,19.554,7.756,-0.020,-0.280,0.060,0.062,-0.125,-0.062,350.75,1.50,-96.75,1,,0,0,0,0,0,0,0,0,0,031.044394,-103.534966,1,12
23294,2127.212,50.27,908.98,5.477,19.565,7.756,0.000,-0.280,0.030,0.000,-0.312,0.125,350.75,1.50,-96.75,1,,0,0,0,0,0,0,0,0,0,031.044394,-103.534966,1,12
23295,2127.262,50.27,908.98,5.477,19.565,7.756,-0.020,-0.310,0.030,0.062,-0.437,-0.062,350.75,1.50,-96.75,1,,0,0,0,0,0,0,0,0,0,031.044394,-103.534966,1,12
23296,2127.314,50.27,908.97,5.527,19.519,7.756,0.000,-0.300,0.020,0.125,-0.312,0.125,350.75,1.50,-96.75,1,,0,0,0,0,0,0,0,0,0,031.044394,-103.534966,1,12
23297,2127.364,50.27,908.97,5.527,19.519,7.756,-0.020,-0.320,0.000,0.062,-0.250,0.062,350.75,1.50,-96.75,1,,0,0,0,0,0,0,0,0,0,031.044394,-103.534966,1,12
23298,2127.415,50.27,909.00,5.260,19.507,7.756,0.000,-0.320,-0.010,-0.062,0.437,0.000,350.75,1.50,-96.75,1,,0,0,0,0,0,0,0,0,0,031.044394,-103.534966,1,12
23299,2127.468,50.27,909.00,5.260,19.507,7.756,0.020,-0.280,0.000,-0.125,0.625,0.187,350.75,1.50,-96.75,1,,0,0,0,0,0,0,0,0,0,031.044394,-103.534966,1,12
23300,2127.519,50.27,909.01,5.211,19.507,7.756,0.020,-0.290,0.050,-0.125,0.562,0.062,350.69,1.50,-96.75,1,,0,0,0,0,0,0,0,0,0,031.044394,-103.534966,1,12
23301,2127.569,50.27,909.01,5.211,19.507,7.756,0.010,-0.300,0.070,-0.062,0.500,0.062,350.69,1.50,-96.75,1,,0,0,0,0,0,0,0,0,0,031.044394,-103.534966,1,12
23302,2127.619,50.27,908.99,5.395,19.577,7.756,0.000,-0.300,0.080,0.062,0.437,0.062,350.69,1.50,-96.75,1,,0,0,0,0,0,0,0,0,0,031.044394,-103.534966,1,12
23303,2128.083,50.21,908.91,6.067,19.528,7.756,-0.010,-0.290,0.050,-0.250,0.312,0.187,350.69,1.50,-96.75,1,,0,0,0,0,0,0,0,0,0,031.044394,-103.534966,1,12
23304,2128.136,50.27,908.99,5.361,19.602,7.756,-0.010,-0.270,0.080,-0.125,0.375,0.125,350.69,1.50,-96.75,1,,0,0,0,0,0,0,0,0,0,031.044394,-103.534966,1,12
23305,2128.187,50.27,908.99,5.361,19.602,7.756,0.000,-0.290,0.070,-0.125,0.250,0.062,350.69,1.50,-96.75,1,,0,0,0,0,0,0,0,0,0,031.044394,-103.534966,1,12
23306,2128.238,50.28,909.01,5.162,19.519,7.756,0.000,-0.320,0.050,-0.125,0.375,0.062,350.69,1.50,-96.75,1,,0,0,0,0,0,0,0,0,0,031.044394,-103.534966,1,12
23307,2128.347,50.27,908.98,5.478,19.530,7.756,0.030,-0.310,-0.010,-0.125,0.562,0.187,350.62,1.50,-96.75,1,,0,0,0,0,0,0,0,0,0,031.044394,-103.534966,1,12
23308,2128.397,50.27,909.00,5.311,19.530,7.756,0.050,-0.310,0.000,-0.062,0.250,0.000,350.62,1.50,-96.75,1,,0,0,0,0,0,0,0,0,0,031.044394,-103.534966,1,12
23309,2128.449,50.27,909.00,5.311,19.530,7.756,0.020,-0.310,0.010,0.000,-0.125,0.062,350.62,1.50,-96.75,1,,0,0,0,0,0,0,0,0,0,031.044394,-103.534966,1,12
23310,2128.499,50.27,908.97,5.576,19.530,7.756,0.010,-0.290,0.010,-0.125,-0.125,0.125,350.62,1.50,-96.75,1,,0,0,0,0,0,0,0,0,0,031.044394,-103.534966,1,12
23311,2128.550,50.27,908.97,5.576,19.530,7.756,-0.020,-0.270,0.030,-0.062,-0.375,-0.062,350.62,1.50,-96.75,1,,0,0,0,0,0,0,0,0,0,031.044394,-103.534966,1,12
23312,2128.604,50.27,908.98,5.492,19.519,7.756,0.000,-0.320,0.040,-0.187,-0.187,0.000,350.62,1.50,-96.75,1,,0,0,0,0,0,0,0,0,0,031.044394,-103.534966,1,12
23313,2128.656,50.27,908.98,5.492,19.519,7.756,0.000,-0.280,0.060,-0.062,0.062,0.000,350.62,1.50,-96.75,1,,0,0,0,0,0,0,0,0,0,031.044394,-103.534966,1,12
23314,2129.151,50.28,908.97,5.595,19.543,7.756,0.020,-0.280,0.050,-0.062,-0.375,0.062,350.62,1.50,-96.75,1,,0,0,0,0,0,0,0,0,0,031.044394,-103.534966,1,12
23315,2129.203,50.27,909.00,5.294,19.543,7.756,0.020,-0.300,0.040,-0.062,-0.500,0.000,350.62,1.50,-96.75,1,,0,0,0,0,0,0,0,0,0,031.044394,-103.534966,1,12
23316,2129.257,50.27,909.00,5.294,19.543,7.756,0.000,-0.280,0.070,-0.125,-0.312,0.000,350.62,1.50,-96.75,1,,0,0,0,0,0,0,0,0,0,031.044394,-103.534966,1,12
23317,2129.307,50.28,908.97,5.546,19.543,7.756,0.000,-0.290,0.050,-0.062,-0.125,0.000,350.62,1.50,-96.75,1,,0,0,0,0,0,0,0,0,0,031.044394,-103.534966,1,12
23318,2129.357,50.28,908.97,5.546,19.543,7.756,0.000,-0.300,0.030,0.125,-0.187,0.000,350.62,1.50,-96.75,1,,0,0,0,0,0,0,0,0,0,031.044394,-103.534966,1,12
23319,2129.409,50.27,909.00,5.311,19.566,7.756,0.020,-0.290,0.010,0.125,-0.250,-0.125,350.62,1.50,-96.75,1,,0,0,0,0,0,0,0,0,0,031.044394,-103.534966,1,12
23320,2129.459,50.27,909.00,5.311,19.566,7.756,0.010,-0.290,0.020,0.000,-0.500,-0.062,350.62,1.50,-96.75,1,,0,0,0,0,0,0,0,0,0,031.044394,-103.534966,1,12
23321,2129.509,50.28,908.97,5.529,19.555,7.756,0.020,-0.300,0.000,0.000,-0.437,0.000,350.62,1.50,-96.75,1,,0,0,0,0,0,0,0,0,0,031.044394,-103.534966,1,12
23322,2129.562,50.28,908.97,5.529,19.555,7.756,0.010,-0.310,0.010,-0.062,-0.312,0.062,350.62,1.50,-96.75,1,,0,0,0,0,0,0,0,0,0,031.044394,-103.534966,1,12
23323,2129.614,50.27,908.93,5.961,19.566,7.756,0.010,-0.300,0.060,-0.125,0.125,-0.062,350.62,1.50,-96.75,1,,0,0,0,0,0,0,0,0,0,031.044394,-103.534966,1,12
23324,2129.714,50.27,908.95,5.728,19.555,7.756,0.000,-0.270,0.060,-0.125,0.312,-0.062,350.62,1.50,-96.75,1,,0,0,0,0,0,0,0,0,0,031.044394,-103.534966,1,12
23325,2130.177,50.28,908.95,5.762,19.566,7.756,-0.040,-0.280,0.140,-0.187,0.750,-0.062,350.62,1.50,-96.75,1,,0,0,0,0,0,0,0,0,0,031.044394,-103.534966,1,12
23326,2130.262,50.27,908.96,5.612,19.555,7.756,-0.020,-0.310,0.050,0.125,0.687,-0.062,350.56,1.56,-96.75,1,,0,0,0,0,0,0,0,0,0,031.044394,-103.534966,1,11
23327,2130.312,50.28,908.99,5.362,19.530,7.756,0.000,-0.280,0.040,0.000,0.187,0.062,350.56,1.56,-96.75,1,,0,0,0,0,0,0,0,0,0,031.044394,-103.534966,1,11
23328,2130.362,50.28,908.99,5.362,19.530,7.756,0.010,-0.290,0.010,0.062,-0.125,0.125,350.56,1.56,-96.75,1,,0,0,0,0,0,0,0,0,0,031.044394,-103.534966,1,11
23329,2130.414,50.27,908.91,6.128,19.578,7.756,0.010,-0.270,0.000,0.000,-0.125,-0.062,350.56,1.56,-96.75,1,,0,0,0,0,0,0,0,0,0,031.044394,-103.534966,1,11
23330,2130.464,50.27,908.91,6.128,19.578,7.756,0.000,-0.310,0.000,-0.187,0.125,0.062,350.56,1.56,-96.75,1,,0,0,0,0,0,0,0,0,0,031.044394,-103.534966,1,11
23331,2130.514,50.27,908.93,5.895,19.519,7.756,-0.010,-0.300,0.020,-0.250,0.812,0.000,350.56,1.56,-96.75,1,,0,0,0,0,0,0,0,0,0,031.044394,-103.534966,1,11
23332,2130.568,50.27,908.93,5.895,19.519,7.756,-0.020,-0.290,0.030,-0.312,0.812,-0.187,350.50,1.56,-96.75,1,,0,0,0,0,0,0,0,0,0,031.044394,-103.534966,1,11
23333,2130.620,50.28,908.97,5.563,19.530,7.756,0.000,-0.290,0.090,-0.187,0.875,-0.062,350.44,1.56,-96.75,1,,0,0,0,0,0,0,0,0,0,031.044394,-103.534966,1,11
23334,2130.671,50.28,908.97,5.563,19.530,7.756,0.000,-0.300,0.050,-0.125,0.375,0.062,350.44,1.56,-96.75,1,,0,0,0,0,0,0,0,0,0,031.044394,-103.534966,1,11
23335,2130.722,50.27,908.95,5.760,19.519,7.756,0.000,-0.310,0.030,0.000,0.125,-0.062,350.44,1.56,-96.75,1,,0,0,0,0,0,0,0,0,0,031.044394,-103.534966,1,11
23336,2131.187,50.28,908.97,5.512,19.578,7.756,-0.010,-0.270,0.030,-0.187,-0.625,0.000,350.31,1.56,-96.75,1,,0,0,0,0,0,0,0,0,0,031.044394,-103.534966,1,11
23337,2131.239,50.28,908.95,5.729,19.578,7.756,-0.030,-0.310,0.030,-0.125,-0.187,0.000,350.31,1.56,-96.75,1,,0,0,0,0,0,0,0,0,0,031.044394,-103.534966,1,11
23338,2131.290,50.27,908.95,5.629,19.566,7.756,-0.060,-0.310,0.040,0.000,0.312,-0.125,350.31,1.56,-96.75,1,,0,0,0,0,0,0,0,0,0,031.044394,-103.534966,1,11
23339,2131.341,50.27,908.96,5.661,19.566,7.756,-0.020,-0.320,0.010,-0.125,0.562,-0.062,350.31,1.56,-96.75,1,,0,0,0,0,0,0,0,0,0,031.044394,-103.534966,1,11
23340,2131.391,50.28,908.94,5.762,19.625,7.756,-0.020,-0.320,0.030,-0.062,0.562,0.000,350.31,1.56,-96.75,1,,0,0,0,0,0,0,0,0,0,031.044394,-103.534966,1,11
23341,2131.441,50.28,908.95,5.762,19.625,7.756,0.010,-0.290,-0.010,-0.062,0.125,0.062,350.31,1.56,-96.75,1,,0,0,0,0,0,0,0,0,0,031.044394,-103.534966,1,11
23342,2131.498,50.27,908.96,5.644,19.578,7.756,-0.020,-0.290,0.000,-0.062,0.125,0.062,350.31,1.56,-96.75,1,,0,0,0,0,0,0,0,0,0,031.044394,-103.534966,1,11
23343,2131.549,50.27,908.96,5.644,19.578,7.756,-0.010,-0.290,0.040,-0.125,0.500,0.062,350.31,1.56,-96.75,1,,0,0,0,0,0,0,0,0,0,031.044394,-103.534966,1,11
23344,2131.600,50.27,908.94,5.827,19.577,7.756,-0.010,-0.280,0.040,-0.187,0.750,0.062,350.31,1.56,-96.75,1,,0,0,0,0,0,0,0,0,0,031.044394,-103.534966,1,11
23345,2131.650,50.27,908.94,5.827,19.577,7.756,0.000,-0.280,0.050,-0.125,1.187,0.000,350.25,1.56,-96.75,1,,0,0,0,0,0,0,0,0,0,031.044394,-103.534966,1,11
23346,2131.702,50.27,908.95,5.728,19.578,7.756,0.000,-0.290,0.060,-0.125,0.937,0.062,350.19,1.56,-96.75,1,,0,0,0,0,0,0,0,0,0,031.044394,-103.534966,1,11
23347,2131.787,50.27,908.95,5.728,19.578,7.756,0.020,-0.300,0.040,0.000,-0.062,0.000,350.12,1.56,-96.75,1,,0,0,0,0,0,0,0,0,0,031.044394,-103.534966,1,11
23348,2132.248,50.27,908.96,5.644,19.577,7.756,0.000,-0.300,0.080,-0.187,1.187,0.125,350.06,1.62,-96.75,1,,0,0,0,0,0,0,0,0,0,031.044394,-103.534966,1,11
23349,2132.300,50.27,908.95,5.694,19.577,7.756,-0.010,-0.270,0.040,-0.125,0.875,-0.062,350.00,1.62,-96.75,1,,0,0,0,0,0,0,0,0,0,031.044394,-103.534966,1,11
23350,2132.350,50.27,908.95,5.694,19.577,7.756,0.020,-0.280,0.050,-0.250,0.937,0.125,349.94,1.62,-96.75,1,,0,0,0,0,0,0,0,0,0,031.044394,-103.534966,1,11
23351,2132.400,50.27,908.95,5.727,19.577,7.756,0.020,-0.280,0.040,-0.187,0.687,0.000,349.87,1.62,-96.75,1,,0,0,0,0,0,0,0,0,0,031.044394,-103.534966,1,11
23352,2132.451,50.27,908.95,5.727,19.577,7.756,0.010,-0.300,0.010,-0.125,0.500,0.000,349.87,1.62,-96.75,1,,0,0,0,0,0,0,0,0,0,031.044394,-103.534966,1,11
23353,2132.501,50.27,908.96,5.628,19.578,7.756,0.020,-0.290,0.080,-0.125,-0.062,-0.125,349.87,1.62,-96.75,1,,0,0,0,0,0,0,0,0,0,031.044394,-103.534966,1,11
23354,2132.551,50.27,908.96,5.628,19.578,7.756,0.020,-0.280,0.040,-0.187,-0.062,0.000,349.87,1.62,-96.75,1,,0,0,0,0,0,0,0,0,0,031.044394,-103.534966,1,11
23355,2132.601,50.27,908.95,5.759,19.577,7.756,0.000,-0.280,0.030,-0.125,0.187,0.125,349.87,1.62,-96.75,1,,0,0,0,0,0,0,0,0,0,031.044394,-103.534966,1,11
23356,2132.711,50.27,908.95,5.760,19.577,7.756,-0.070,-0.300,0.060,-0.062,0.062,-0.125,349.87,1.62,-96.75,1,,0,0,0,0,0,0,0,0,0,031.044394,-103.534966,1,11
23357,2132.764,50.27,908.95,5.760,19.577,7.756,-0.060,-0.290,0.040,-0.187,0.312,-0.125,349.87,1.62,-96.75,1,,0,0,0,0,0,0,0,0,0,031.044394,-103.534966,1,11
23358,2132.816,50.28,908.97,5.512,19.543,7.756,-0.040,-0.310,0.050,-0.125,0.187,0.062,349.87,1.62,-96.75,1,,0,0,0,0,0,0,0,0,0,031.044394,-103.534966,1,11
23359,2133.280,50.28,908.94,5.829,19.578,7.756,0.000,-0.300,0.030,0.000,-0.187,-0.250,349.56,1.62,-96.69,1,,0,0,0,0,0,0,0,0,0,031.044394,-103.534966,1,11
23360,2133.843,50.28,908.98,5.413,19.578,7.756,0.000,-0.310,0.060,-0.125,0.500,0.062,349.31,1.69,-96.69,1,,0,0,0,0,0,0,0,0,0,031.044395,-103.534966,1,11
23361,2134.305,50.28,908.98,5.413,19.578,7.756,-0.040,-0.300,0.070,0.062,0.562,0.000,349.25,1.69,-96.69,1,,0,0,0,0,0,0,0,0,0,031.044395,-103.534966,1,11
23362,2134.358,50.28,908.98,5.413,19.578,7.756,0.000,-0.300,0.080,0.187,0.500,0.062,349.25,1.69,-96.69,1,,0,0,0,0,0,0,0,0,0,031.044395,-103.534966,1,11
23363,2134.411,50.28,908.98,5.412,19.566,7.756,-0.010,-0.290,0.060,0.062,0.437,-0.062,349.25,1.69,-96.69,1,,0,0,0,0,0,0,0,0,0,031.044395,-103.534966,1,11
23364,2134.462,50.28,908.98,5.412,19.566,7.756,0.000,-0.310,0.060,0.000,0.437,-0.062,349.25,1.69,-96.69,1,,0,0,0,0,0,0,0,0,0,031.044395,-103.534966,1,11
23365,2134.513,50.28,908.97,5.563,19.578,7.756,0.000,-0.290,0.030,0.062,0.250,0.000,349.25,1.69,-96.69,1,,0,0,0,0,0,0,0,0,0,031.044395,-103.534966,1,11
23366,2134.563,50.28,908.97,5.563,19.578,7.756,0.000,-0.310,0.010,0.000,0.062,0.000,349.25,1.69,-96.69,1,,0,0,0,0,0,0,0,0,0,031.044395,-103.534966,1,11
23367,2134.613,50.28,908.98,5.462,19.602,7.756,0.000,-0.290,0.000,0.125,-0.125,0.000,349.25,1.69,-96.69,1,,0,0,0,0,0,0,0,0,0,031.044395,-103.534966,1,11
23368,2134.663,50.28,908.98,5.462,19.602,7.756,0.000,-0.290,0.020,-0.062,-0.062,-0.250,349.25,1.69,-96.69,1,,0,0,0,0,0,0,0,0,0,031.044395,-103.534966,1,11
23369,2134.720,50.27,908.98,5.445,19.543,7.756,-0.010,-0.310,0.050,0.062,-0.187,-0.062,349.25,1.69,-96.69,1,,0,0,0,0,0,0,0,0,0,031.044395,-103.534966,1,11
23370,2134.771,50.27,908.98,5.445,19.543,7.756,-0.030,-0.280,0.030,0.062,0.000,-0.187,349.25,1.69,-96.69,1,,0,0,0,0,0,0,0,0,0,031.044395,-103.534966,1,11
23371,2134.822,50.28,908.98,5.428,19.590,7.756,-0.040,-0.300,0.020,0.062,0.187,-0.125,349.25,1.69,-96.69,1,,0,0,0,0,0,0,0,0,0,031.044395,-103.534966,1,11
23372,2134.895,50.25,908.94,5.824,19.636,7.756,-0.040,-0.270,0.060,0.062,0.375,0.062,349.25,1.69,-96.69,1,,0,0,0,0,0,0,0,0,0,031.044395,-103.534966,1,11
23373,2135.359,50.27,908.97,5.528,19.566,7.756,-0.020,-0.270,0.030,0.000,-0.625,-0.125,349.25,1.69,-96.69,1,,0,0,0,0,0,0,0,0,0,031.044395,-103.534966,1,11
23374,2135.410,50.28,908.98,5.462,19.530,7.756,-0.010,-0.290,0.030,0.062,-0.812,-0.062,349.25,1.69,-96.69,1,,0,0,0,0,0,0,0,0,0,031.044395,-103.534966,1,11
23375,2135.461,50.28,908.98,5.462,19.530,7.756,-0.050,-0.320,0.010,0.062,-0.687,-0.125,349.31,1.69,-96.69,1,,0,0,0,0,0,0,0,0,0,031.044395,-103.534966,1,11
23376,2135.512,50.28,908.98,5.495,19.578,7.756,-0.050,-0.290,0.020,0.125,-0.250,-0.125,349.31,1.69,-96.69,1,,0,0,0,0,0,0,0,0,0,031.044395,-103.534966,1,11
23377,2135.562,50.28,908.98,5.495,19.578,7.756,-0.040,-0.270,0.010,0.062,-0.125,0.062,349.31,1.69,-96.69,1,,0,0,0,0,0,0,0,0,0,031.044395,-103.534966,1,11
23378,2135.612,50.27,908.96,5.611,19.507,7.756,0.000,-0.300,0.020,0.000,0.000,0.000,349.31,1.69,-96.69,1,,0,0,0,0,0,0,0,0,0,031.044395,-103.534966,1,11
23379,2135.667,50.27,908.96,5.611,19.507,7.756,-0.020,-0.300,0.010,-0.062,-0.125,0.062,349.31,1.69,-96.69,1,,0,0,0,0,0,0,0,0,0,031.044395,-103.534966,1,11
23380,2135.718,50.27,908.95,5.759,19.648,7.756,-0.030,-0.290,0.020,-0.125,-0.062,-0.062,349.31,1.69,-96.69,1,,0,0,0,0,0,0,0,0,0,031.044395,-103.534966,1,11
23381,2135.769,50.27,908.95,5.759,19.648,7.756,-0.040,-0.300,0.050,-0.187,0.187,0.062,349.31,1.69,-96.69,1,,0,0,0,0,0,0,0,0,0,031.044395,-103.534966,1,11
23382,2135.820,50.27,908.97,5.578,19.566,7.756,-0.010,-0.300,0.020,-0.187,0.312,0.125,349.31,1.69,-96.69,1,,0,0,0,0,0,0,0,0,0,031.044395,-103.534966,1,11
23383,2135.871,50.27,908.97,5.578,19.566,7.756,0.000,-0.290,0.050,0.000,0.187,0.000,349.31,1.69,-96.69,1,,0,0,0,0,0,0,0,0,0,031.044395,-103.534966,1,11
23384,2135.921,50.25,908.91,6.125,19.636,7.756,0.000,-0.290,0.020,0.000,0.062,-0.062,349.31,1.69,-96.69,1,,0,0,0,0,0,0,0,0,0,031.044395,-103.534966,1,11
23385,2136.386,50.28,908.97,5.579,19.566,7.756,-0.030,-0.290,0.020,-0.062,0.000,0.000,349.44,1.69,-96.69,1,,0,0,0,0,0,0,0,0,0,031.044395,-103.534966,1,11
23386,2136.470,50.28,908.98,5.480,19.613,7.756,0.000,-0.300,0.000,0.062,0.312,0.000,349.44,1.69,-96.69,1,,0,0,0,0,0,0,0,0,0,031.044395,-103.534966,1,11
23387,2136.538,50.28,908.95,5.729,19.519,7.756,0.000,-0.300,0.040,0.062,-0.062,0.125,349.44,1.69,-96.69,1,,0,0,0,0,0,0,0,0,0,031.044395,-103.534966,1,11
23388,2136.589,50.28,908.95,5.729,19.519,7.756,0.010,-0.300,0.040,0.062,-0.250,-0.125,349.44,1.69,-96.69,1,,0,0,0,0,0,0,0,0,0,031.044395,-103.534966,1,11
23389,2136.640,50.28,908.94,5.829,19.507,7.756,0.020,-0.290,0.030,-0.125,-0.187,0.000,349.44,1.69,-96.69,1,,0,0,0,0,0,0,0,0,0,031.044395,-103.534966,1,11
23390,2136.690,50.28,908.94,5.829,19.578,7.756,0.010,-0.280,0.040,0.000,-0.312,0.000,349.44,1.69,-96.69,1,,0,0,0,0,0,0,0,0,0,031.044395,-103.534966,1,11
23391,2136.741,50.28,908.98,5.463,19.578,7.756,0.000,-0.300,0.060,0.062,-0.312,-0.125,349.44,1.69,-96.69,1,,0,0,0,0,0,0,0,0,0,031.044395,-103.534966,1,11
23392,2136.792,50.28,908.98,5.630,19.519,7.756,0.000,-0.310,0.030,0.000,-0.375,-0.062,349.44,1.69,-96.69,1,,0,0,0,0,0,0,0,0,0,031.044395,-103.534966,1,11
23393,2136.842,50.28,908.96,5.630,19.519,7.756,-0.010,-0.290,0.040,0.000,-0.687,0.000,349.44,1.62,-96.69,1,,0,0,0,0,0,0,0,0,0,031.044395,-103.534966,1,11
23394,2136.892,50.25,908.96,6.124,19.541,7.756,-0.010,-0.280,0.050,0.125,-0.437,0.062,349.44,1.62,-96.69,1,,0,0,0,0,0,0,0,0,0,031.044395,-103.534966,1,11
23395,2136.946,50.25,908.91,6.124,19.541,7.756,-0.050,-0.270,0.050,0.000,-0.437,-0.125,349.50,1.62,-96.69,1,,0,0,0,0,0,0,0,0,0,031.044395,-103.534966,1,11
23396,2137.408,50.28,908.95,5.697,19.566,7.756,0.000,-0.270,0.040,-0.125,-0.250,0.062,349.50,1.62,-96.69,1,,0,0,0,0,0,0,0,0,0,031.044395,-103.534966,1,11
23397,2137.458,50.28,908.95,5.697,19.566,7.756,-0.020,-0.320,0.010,-0.062,-0.312,0.125,349.50,1.62,-96.69,1,,0,0,0,0,0,0,0,0,0,031.044395,-103.534966,1,11
23398,2137.510,50.27,908.98,5.462,19.555,7.756,-0.010,-0.280,0.050,0.000,-0.375,0.000,349.50,1.62,-96.69,1,,0,0,0,0,0,0,0,0,0,031.044395,-103.534966,1,11
23399,2137.564,50.27,908.98,5.462,19.555,7.756,-0.010,-0.280,0.050,-0.062,0.062,-0.187,349.50,1.62,-96.69,1,,0,0,0,0,0,0,0,0,0,031.044395,-103.534966,1,11
23400,2137.615,50.28,908.97,5.512,19.543,7.756,-0.030,-0.270,0.030,-0.062,0.062,-0.062,349.50,1.62,-96.69,1,,0,0,0,0,0,0,0,0,0,031.044395,-103.534966,1,11
23401,2137.665,50.28,908.97,5.512,19.543,7.756,-0.020,-0.310,0.010,0.187,-0.250,-0.062,349.50,1.62,-96.69,1,,0,0,0,0,0,0,0,0,0,031.044395,-103.534966,1,11
23402,2137.717,50.27,908.97,5.510,19.542,7.756,-0.030,-0.320,0.000,0.125,-0.125,0.062,349.50,1.62,-96.69,1,,0,0,0,0,0,0,0,0,0,031.044395,-103.534966,1,11
23403,2137.767,50.27,908.97,5.510,19.542,7.756,-0.030,-0.280,0.000,0.062,-0.062,0.125,349.50,1.62,-96.69,1,,0,0,0,0,0,0,0,0,0,031.044395,-103.534966,1,11
23404,2137.875,50.27,908.96,5.678,19.530,7.756,-0.020,-0.290,0.000,0.000,0.250,0.000,349.50,1.62,-96.69,1,,0,0,0,0,0,0,0,0,0,031.044395,-103.534966,1,11
23405,2137.926,50.25,908.92,5.990,19.564,7.756,-0.020,-0.300,0.060,0.000,0.125,-0.062,349.50,1.62,-96.69,1,,0,0,0,0,0,0,0,0,0,031.044395,-103.534966,1,11
23406,2138.008,50.22,908.87,6.435,19.599,7.756,-0.020,-0.280,0.010,0.062,-0.062,0.000,349.50,1.62,-96.69,1,,0,0,0,0,0,0,0,0,0,031.044395,-103.534966,1,11
23407,2138.471,50.28,908.95,5.713,19.566,7.756,-0.010,-0.310,0.050,0.062,-0.250,0.125,349.50,1.62,-96.69,1,,0,0,0,0,0,0,0,0,0,031.044395,-103.534966,1,11
23408,2138.523,50.28,908.95,5.762,19.519,7.756,0.000,-0.320,0.030,0.000,0.312,-0.062,349.50,1.62,-96.69,1,,0,0,0,0,0,0,0,0,0,031.044395,-103.534966,1,11
23409,2138.573,50.28,908.95,5.762,19.519,7.756,-0.010,-0.300,0.010,-0.062,0.187,0.125,349.50,1.62,-96.69,1,,0,0,0,0,0,0,0,0,0,031.044395,-103.534966,1,11
23410,2138.623,50.27,908.91,6.128,19.507,7.756,0.000,-0.280,0.040,0.125,0.250,0.000,349.50,1.62,-96.69,1,,0,0,0,0,0,0,0,0,0,031.044395,-103.534966,1,11
23411,2138.673,50.27,908.91,6.128,19.507,7.756,-0.020,-0.300,0.050,0.000,0.250,0.062,349.50,1.62,-96.69,1,,0,0,0,0,0,0,0,0,0,031.044395,-103.534966,1,11
23412,2138.725,50.27,908.94,5.795,19.530,7.756,0.000,-0.290,0.050,0.000,-0.125,0.187,349.50,1.62,-96.69,1,,0,0,0,0,0,0,0,0,0,031.044395,-103.534966,1,11
23413,2138.777,50.27,908.94,5.795,19.530,7.756,0.000,-0.300,0.050,-0.062,0.062,0.187,349.50,1.62,-96.69,1,,0,0,0,0,0,0,0,0,0,031.044395,-103.534966,1,11
23414,2138.831,50.27,908.94,5.795,19.543,7.756,-0.010,-0.270,0.040,-0.062,0.125,0.062,349.50,1.62,-96.69,1,,0,0,0,0,0,0,0,0,0,031.044395,-103.534966,1,11
23415,2138.883,50.27,908.94,5.795,19.543,7.756,0.010,-0.310,0.050,-0.062,0.125,0.062,349.50,1.62,-96.69,1,,0,0,0,0,0,0,0,0,0,031.044395,-103.534966,1,11
23416,2138.933,50.25,908.93,5.923,19.553,7.756,0.000,-0.270,0.050,-0.062,0.250,0.000,349.50,1.62,-96.69,1,,0,0,0,0,0,0,0,0,0,031.044395,-103.534966,1,11
23417,2138.983,50.25,908.93,5.923,19.553,7.756,0.000,-0.310,0.040,-0.062,0.000,0.062,349.50,1.62,-96.69,1,,0,0,0,0,0,0,0,0,0,031.044395,-103.534966,1,11
23418,2139.034,50.21,908.87,6.436,19.504,7.756,0.020,-0.290,0.040,0.125,-0.187,-0.062,349.50,1.62,-96.69,1,,0,0,0,0,0,0,0,0,0,031.044395,-103.534966,1,11
23419,2139.498,50.28,908.97,5.579,19.566,7.756,-0.030,-0.280,0.000,0.062,-0.062,0.000,349.50,1.62,-96.69,1,,0,0,0,0,0,0,0,0,0,031.044395,-103.534966,1,11
23420,2139.581,50.28,908.97,5.579,19.566,7.756,0.000,-0.300,0.030,0.000,0.500,-0.125,349.50,1.62,-96.69,1,,0,0,0,0,0,0,0,0,0,031.044395,-103.534966,1,12
23421,2139.631,50.28,908.96,5.679,19.708,7.756,0.000,-0.290,0.010,0.000,0.000,-0.187,349.50,1.62,-96.69,1,,0,0,0,0,0,0,0,0,0,031.044395,-103.534966,1,12
23422,2139.684,50.28,908.96,5.679,19.708,7.756,0.010,-0.270,0.060,0.062,0.000,-0.062,349.50,1.62,-96.69,1,,0,0,0,0,0,0,0,0,0,031.044395,-103.534966,1,12
23423,2139.735,50.28,908.98,5.428,19.566,7.756,-0.010,-0.280,0.070,0.062,0.000,-0.125,349.50,1.62,-96.69,1,,0,0,0,0,0,0,0,0,0,031.044395,-103.534966,1,12
23424,2139.785,50.28,908.98,5.428,19.566,7.756,-0.020,-0.300,0.050,0.125,-0.312,-0.125,349.50,1.62,-96.69,1,,0,0,0,0,0,0,0,0,0,031.044395,-103.534966,1,12
23425,2139.838,50.28,908.96,5.613,19.590,7.756,0.000,-0.270,0.060,0.000,-0.437,-0.062,349.50,1.62,-96.69,1,,0,0,0,0,0,0,0,0,0,031.044395,-103.534966,1,12
23426,2139.889,50.28,908.96,5.613,19.590,7.756,-0.020,-0.310,0.000,-0.062,-0.375,-0.062,349.50,1.62,-96.69,1,,0,0,0,0,0,0,0,0,0,031.044395,-103.534966,1,12
23427,2139.940,50.25,908.92,6.008,19.529,7.756,0.000,-0.300,0.020,0.000,-0.312,-0.125,349.50,1.62,-96.69,1,,0,0,0,0,0,0,0,0,0,031.044395,-103.534966,1,12
23428,2139.991,50.22,908.92,6.008,19.563,7.756,-0.010,-0.310,0.020,0.062,0.000,-0.125,349.50,1.62,-96.69,1,,0,0,0,0,0,0,0,0,0,031.044395,-103.534966,1,12
23429,2140.041,50.22,908.87,6.454,19.563,7.756,-0.010,-0.290,0.040,-0.187,0.375,0.000,349.50,1.62,-96.69,1,,0,0,0,0,0,0,0,0,0,031.044395,-103.534966,1,12
23430,2140.506,50.28,908.95,5.714,19.566,7.756,0.000,-0.310,0.030,0.062,0.000,-0.062,349.50,1.62,-96.69,1,,0,0,0,0,0,0,0,0,0,031.044395,-103.534966,1,12
23431,2140.557,50.28,908.95,5.714,19.566,7.756,-0.020,-0.310,0.040,0.062,-0.125,-0.250,349.50,1.62,-96.69,1,,0,0,0,0,0,0,0,0,0,031.044395,-103.534966,1,12
23432,2140.609,50.28,908.96,5.629,19.555,7.756,-0.020,-0.280,0.050,0.125,-0.125,-0.187,349.50,1.62,-96.69,1,,0,0,0,0,0,0,0,0,0,031.044395,-103.534966,1,12
23433,2140.659,50.28,908.96,5.629,19.555,7.756,-0.050,-0.290,0.040,0.062,0.062,-0.062,349.50,1.62,-96.69,1,,0,0,0,0,0,0,0,0,0,031.044395,-103.534966,1,12
23434,2140.709,50.28,908.93,5.930,19.578,7.756,-0.020,-0.310,0.010,0.000,-0.187,0.000,349.50,1.62,-96.69,1,,0,0,0,0,0,0,0,0,0,031.044395,-103.534966,1,12
23435,2140.760,50.28,908.93,5.930,19.578,7.756,-0.030,-0.300,-0.010,0.125,-0.375,-0.062,349.50,1.62,-96.69,1,,0,0,0,0,0,0,0,0,0,031.044395,-103.534966,1,12
23436,2140.810,50.27,908.90,6.245,19.578,7.756,0.000,-0.260,-0.010,0.000,-0.125,0.125,349.50,1.62,-96.69,1,,0,0,0,0,0,0,0,0,0,031.044395,-103.534966,1,12
23437,2140.861,50.27,908.90,6.245,19.578,7.756,0.000,-0.310,0.000,-0.062,-0.250,0.062,349.50,1.62,-96.69,1,,0,0,0,0,0,0,0,0,0,031.044395,-103.534966,1,12
23438,2140.915,50.25,908.87,6.508,19.553,7.756,-0.030,-0.300,0.020,-0.062,0.375,-0.125,349.50,1.62,-96.69,1,,0,0,0,0,0,0,0,0,0,031.044395,-103.534966,1,12
23439,2140.967,50.25,908.87,6.508,19.553,7.756,-0.030,-0.310,0.040,0.000,0.875,-0.062,349.44,1.62,-96.69,1,,0,0,0,0,0,0,0,0,0,031.044395,-103.534966,1,12
23440,2141.017,50.22,908.87,6.485,19.552,7.756,-0.030,-0.260,0.050,0.062,0.437,0.000,349.44,1.69,-96.69,1,,0,0,0,0,0,0,0,0,0,031.044395,-103.534966,1,12
23441,2141.103,50.28,908.96,5.597,19.625,7.756,0.020,-0.300,0.030,0.187,-0.062,0.000,349.44,1.69,-96.69,1,,0,0,0,0,0,0,0,0,0,031.044395,-103.534966,1,12
23442,2141.565,50.28,908.93,5.913,19.578,7.756,0.000,-0.290,0.000,0.000,0.250,-0.062,349.44,1.69,-96.69,1,,0,0,0,0,0,0,0,0,0,031.044395,-103.534966,1,12
23443,2141.616,50.28,908.96,5.613,19.530,7.756,-0.010,-0.290,0.000,0.125,0.250,0.000,349.44,1.69,-96.69,1,,0,0,0,0,0,0,0,0,0,031.044395,-103.534966,1,12
23444,2141.666,50.28,908.96,5.613,19.530,7.756,0.010,-0.300,0.000,0.125,0.062,-0.062,349.44,1.69,-96.69,1,,0,0,0,0,0,0,0,0,0,031.044395,-103.534966,1,12
23445,2141.717,50.27,908.94,5.811,19.638,7.756,0.020,-0.300,0.020,0.125,-0.312,0.062,349.44,1.69,-96.69,1,,0,0,0,0,0,0,0,0,0,031.044395,-103.534966,1,12
23446,2141.767,50.27,908.94,5.811,19.638,7.756,0.000,-0.310,0.020,0.000,-0.687,-0.062,349.44,1.69,-96.69,1,,0,0,0,0,0,0,0,0,0,031.044395,-103.534966,1,12
23447,2141.817,50.28,908.93,5.930,19.590,7.756,-0.010,-0.300,0.080,0.000,-0.875,-0.125,349.50,1.62,-96.69,1,,0,0,0,0,0,0,0,0,0,031.044395,-103.534966,1,12
23448,2141.874,50.28,908.93,5.930,19.590,7.756,0.000,-0.270,0.040,-0.125,-0.500,-0.062,349.50,1.62,-96.69,1,,0,0,0,0,0,0,0,0,0,031.044395,-103.534966,1,12
23449,2141.925,50.26,908.90,6.192,19.589,7.756,-0.020,-0.320,0.020,0.000,-0.625,0.062,349.50,1.62,-96.69,1,,0,0,0,0,0,0,0,0,0,031.044395,-103.534966,1,12
23450,2142.026,50.22,908.86,6.585,19.587,7.756,-0.020,-0.280,0.000,-0.062,-0.500,0.125,349.56,1.62,-96.69,1,,0,0,0,0,0,0,0,0,0,031.044395,-103.534966,1,12
23451,2142.077,50.22,908.86,6.585,19.587,7.756,-0.020,-0.280,-0.010,0.062,-0.437,0.125,349.62,1.62,-96.69,1,,0,0,0,0,0,0,0,0,0,031.044395,-103.534966,1,12
23452,2142.185,50.28,908.94,5.864,19.602,7.756,-0.030,-0.290,0.010,-0.187,0.312,-0.062,349.62,1.62,-96.69,1,,0,0,0,0,0,0,0,0,0,031.044395,-103.534966,1,12
23453,2142.647,50.28,908.90,6.229,19.590,7.756,-0.010,-0.300,-0.020,-0.125,-0.125,0.000,349.62,1.62,-96.69,1,,0,0,0,0,0,0,0,0,0,031.044395,-103.534966,1,12
23454,2142.731,50.28,908.92,6.030,19.590,7.756,-0.030,-0.300,0.030,-0.062,0.187,-0.062,349.62,1.62,-96.69,1,,0,0,0,0,0,0,0,0,0,031.044395,-103.534966,1,12
23455,2142.783,50.28,908.92,6.030,19.590,7.756,-0.020,-0.310,0.030,-0.187,0.187,0.062,349.62,1.62,-96.69,1,,0,0,0,0,0,0,0,0,0,031.044395,-103.534966,1,12
23456,2142.833,50.29,908.93,5.897,19.661,7.756,-0.020,-0.300,0.050,0.000,0.375,-0.125,349.62,1.62,-96.69,1,,0,0,0,0,0,0,0,0,0,031.044395,-103.534966,1,12
23457,2142.883,50.29,908.93,5.897,19.661,7.756,-0.050,-0.310,0.070,0.000,0.500,0.000,349.62,1.62,-96.69,1,,0,0,0,0,0,0,0,0,0,031.044395,-103.534966,1,12
23458,2142.935,50.25,908.89,6.291,19.672,7.756,-0.010,-0.290,0.080,0.125,0.812,-0.062,349.56,1.62,-96.69,1,,0,0,0,0,0,0,0,0,0,031.044395,-103.534966,1,12
23459,2142.985,50.25,908.89,6.291,19.672,7.756,0.000,-0.310,0.050,0.000,0.687,0.000,349.50,1.62,-96.69,1,,0,0,0,0,0,0,0,0,0,031.044395,-103.534966,1,12
23460,2143.034,50.23,908.87,6.470,19.576,7.756,0.010,-0.300,0.070,0.187,0.125,0.062,349.50,1.62,-96.69,1,,0,0,0,0,0,0,0,0,0,031.044395,-103.534966,1,12
23461,2143.088,50.23,908.87,6.470,19.576,7.756,0.030,-0.310,0.000,0.250,-0.562,-0.125,349.50,1.62,-96.69,1,,0,0,0,0,0,0,0,0,0,031.044395,-103.534966,1,12
23462,2143.140,50.28,908.95,5.762,19.649,7.756,0.020,-0.320,0.000,0.125,-1.187,-0.062,349.56,1.62,-96.69,1,,0,0,0,0,0,0,0,0,0,031.044395,-103.534966,1,12
23463,2143.192,50.28,908.95,5.762,19.590,7.756,0.000,-0.290,0.000,0.000,-1.187,-0.125,349.69,1.62,-96.75,1,,0,0,0,0,0,0,0,0,0,031.044395,-103.534966,1,12
23464,2143.653,50.28,908.96,5.679,19.613,7.756,0.050,-0.310,-0.040,0.000,0.500,0.125,349.75,1.62,-96.75,1,,0,0,0,0,0,0,0,0,0,031.044395,-103.534966,1,12
23465,2143.707,50.28,908.96,5.613,19.613,7.756,0.040,-0.300,0.010,-0.125,0.375,0.062,349.75,1.62,-96.75,1,,0,0,0,0,0,0,0,0,0,031.044395,-103.534966,1,12
23466,2143.759,50.28,908.96,5.613,19.613,7.756,-0.010,-0.320,0.060,-0.062,0.312,-0.187,349.75,1.62,-96.75,1,,0,0,0,0,0,0,0,0,0,031.044395,-103.534966,1,12
23467,2143.810,50.28,908.99,5.397,19.638,7.756,0.000,-0.300,0.060,0.000,0.000,0.000,349.75,1.62,-96.75,1,,0,0,0,0,0,0,0,0,0,031.044395,-103.534966,1,12
23468,2143.862,50.28,908.99,5.397,19.638,7.756,-0.030,-0.320,0.110,0.312,-0.312,-0.187,349.75,1.62,-96.75,1,,0,0,0,0,0,0,0,0,0,031.044395,-103.534966,1,12
23469,2143.912,50.25,908.93,5.876,19.636,7.756,-0.030,-0.290,0.060,0.125,-0.375,-0.125,349.75,1.62,-96.75,1,,0,0,0,0,0,0,0,0,0,031.044395,-103.534966,1,12
23470,2143.962,50.25,908.93,5.876,19.636,7.756,-0.010,-0.290,0.030,0.125,-0.562,0.062,349.75,1.62,-96.75,1,,0,0,0,0,0,0,0,0,0,031.044395,-103.534966,1,12
23471,2144.015,50.22,908.88,6.419,19.623,7.756,0.000,-0.280,-0.020,0.125,-0.375,0.062,349.75,1.62,-96.75,1,,0,0,0,0,0,0,0,0,0,031.044395,-103.534966,1,12
23472,2144.068,50.22,908.88,6.419,19.623,7.756,0.010,-0.290,-0.020,0.062,-0.312,0.125,349.75,1.62,-96.75,1,,0,0,0,0,0,0,0,0,0,031.044395,-103.534966,1,12
23473,2144.119,50.28,908.97,5.562,19.649,7.756,0.010,-0.290,-0.040,-0.062,-0.125,0.062,349.75,1.62,-96.75,1,,0,0,0,0,0,0,0,0,0,031.044395,-103.534966,1,12
23474,2144.170,50.28,908.97,5.562,19.649,7.756,0.030,-0.300,0.000,-0.187,0.125,0.062,349.75,1.62,-96.75,1,,0,0,0,0,0,0,0,0,0,031.044395,-103.534966,1,12
23475,2144.258,50.28,908.94,5.862,19.590,7.756,-0.020,-0.300,0.040,-0.062,0.437,-0.187,349.75,1.62,-96.75,1,,0,0,0,0,0,0,0,0,0,031.044395,-103.534966,1,12
23476,2144.719,50.29,908.99,5.364,19.638,7.756,0.000,-0.270,0.030,-0.062,0.125,0.000,349.69,1.62,-96.75,1,,0,0,0,0,0,0,0,0,0,031.044395,-103.534966,1,12
23477,2144.769,50.29,908.99,5.364,19.638,7.756,-0.020,-0.300,0.010,-0.062,-0.062,0.000,349.69,1.62,-96.75,1,,0,0,0,0,0,0,0,0,0,031.044395,-103.534966,1,12
23478,2144.821,50.28,908.96,5.597,19.578,7.756,-0.010,-0.310,0.020,-0.062,-0.437,0.062,349.69,1.62,-96.75,1,,0,0,0,0,0,0,0,0,0,031.044395,-103.534966,1,12
23479,2144.871,50.28,908.96,5.597,19.578,7.756,-0.030,-0.290,0.050,0.000,-0.250,0.000,349.69,1.62,-96.75,1,,0,0,0,0,0,0,0,0,0,031.044395,-103.534966,1,12
23480,2144.921,50.25,908.90,6.208,19.707,7.756,-0.040,-0.310,0.070,0.062,-0.125,0.000,349.69,1.62,-96.75,1,,0,0,0,0,0,0,0,0,0,031.044395,-103.534966,1,12
23481,2144.973,50.25,908.90,6.208,19.707,7.756,0.000,-0.280,0.070,0.125,0.250,0.125,349.69,1.62,-96.75,1,,0,0,0,0,0,0,0,0,0,031.044395,-103.534966,1,12
23482,2145.024,50.22,908.87,6.503,19.706,7.756,0.010,-0.280,0.040,0.187,0.437,0.125,349.69,1.62,-96.75,1,,0,0,0,0,0,0,0,0,0,031.044395,-103.534966,1,12
23483,2145.076,50.22,908.87,6.503,19.706,7.756,0.020,-0.310,0.010,0.125,0.125,0.000,349.69,1.62,-96.75,1,,0,0,0,0,0,0,0,0,0,031.044395,-103.534966,1,12
23484,2145.127,50.28,908.95,5.697,19.661,7.756,0.000,-0.300,0.020,0.125,0.062,-0.125,349.69,1.62,-96.75,1,,0,0,0,0,0,0,0,0,0,031.044395,-103.534966,1,12
23485,2145.178,50.28,908.95,5.697,19.661,7.756,-0.030,-0.310,-0.020,0.062,-0.437,-0.062,349.69,1.62,-96.75,1,,0,0,0,0,0,0,0,0,0,031.044395,-103.534966,1,12
23486,2145.227,50.28,908.95,5.730,19.613,7.756,-0.030,-0.330,0.010,0.000,-0.437,-0.125,349.69,1.62,-96.75,1,,0,0,0,0,0,0,0,0,0,031.044395,-103.534966,1,12
23487,2145.277,50.28,908.95,5.730,19.613,7.756,-0.060,-0.330,0.000,-0.062,0.062,-0.062,349.69,1.62,-96.75,1,,0,0,0,0,0,0,0,0,0,031.044395,-103.534966,1,12
23488,2145.742,50.29,908.96,5.596,19.649,7.756,0.000,-0.300,-0.030,0.000,-0.312,0.062,349.75,1.62,-96.75,1,,0,0,0,0,0,0,0,0,0,031.044395,-103.534966,1,12
23489,2145.825,50.28,908.96,5.680,19.602,7.756,-0.020,-0.320,0.020,-0.187,0.062,-0.062,349.75,1.62,-96.75,1,,0,0,0,0,0,0,0,0,0,031.044395,-103.534966,1,12
23490,2145.876,50.28,908.96,5.680,19.602,7.756,-0.040,-0.270,0.040,-0.187,0.062,0.000,349.75,1.62,-96.75,1,,0,0,0,0,0,0,0,0,0,031.044395,-103.534966,1,12
23491,2145.927,50.26,908.90,6.175,19.577,7.756,-0.040,-0.300,0.080,-0.062,0.250,0.062,349.75,1.62,-96.75,1,,0,0,0,0,0,0,0,0,0,031.044395,-103.534966,1,12
23492,2145.977,50.26,908.90,6.175,19.577,7.756,-0.030,-0.310,0.070,-0.250,0.437,0.000,349.75,1.62,-96.75,1,,0,0,0,0,0,0,0,0,0,031.044395,-103.534966,1,12
23493,2146.028,50.22,908.88,6.369,19.635,7.756,-0.010,-0.310,0.070,-0.062,0.375,0.062,349.75,1.62,-96.75,1,,0,0,0,0,0,0,0,0,0,031.044395,-103.534966,1,12
23494,2146.082,50.22,908.88,6.369,19.635,7.756,-0.010,-0.310,0.070,0.062,0.375,0.062,349.75,1.62,-96.75,1,,0,0,0,0,0,0,0,0,0,031.044395,-103.534966,1,12
23495,2146.134,50.28,908.95,5.763,19.673,7.756,0.010,-0.320,0.000,-0.062,0.000,0.000,349.75,1.62,-96.75,1,,0,0,0,0,0,0,0,0,0,031.044395,-103.534966,1,12
23496,2146.185,50.28,908.95,5.763,19.673,7.756,0.000,-0.310,0.000,0.062,-0.125,0.125,349.75,1.62,-96.75,1,,0,0,0,0,0,0,0,0,0,031.044395,-103.534966,1,12
23497,2146.235,50.29,908.95,5.713,19.638,7.756,0.010,-0.290,0.000,-0.125,-0.125,0.000,349.75,1.62,-96.75,1,,0,0,0,0,0,0,0,0,0,031.044395,-103.534966,1,12
23498,2146.286,50.29,908.95,5.713,19.638,7.756,-0.030,-0.300,0.020,0.000,-0.250,-0.125,349.75,1.62,-96.75,1,,0,0,0,0,0,0,0,0,0,031.044395,-103.534966,1,12
23499,2146.750,50.28,908.95,5.745,19.661,7.756,-0.030,-0.310,0.000,-0.062,0.000,0.000,349.75,1.62,-96.75,1,,0,0,0,0,0,0,0,0,0,031.044395,-103.534966,1,12
23500,2146.802,50.28,908.96,5.613,19.673,7.756,-0.030,-0.300,0.010,-0.250,0.125,-0.125,349.75,1.62,-96.75,1,,0,0,0,0,0,0,0,0,0,031.044395,-103.534966,1,12
23501,2146.913,50.25,908.92,6.025,19.672,7.756,-0.020,-0.310,0.050,-0.125,0.562,-0.062,349.75,1.62,-96.75,1,,0,0,0,0,0,0,0,0,0,031.044395,-103.534966,1,12
23502,2146.964,50.25,908.92,6.025,19.672,7.756,-0.030,-0.280,0.040,-0.062,0.562,0.062,349.69,1.62,-96.75,1,,0,0,0,0,0,0,0,0,0,031.044395,-103.534966,1,12
23503,2147.014,50.23,908.88,6.421,19.623,7.756,-0.010,-0.310,0.040,-0.125,0.500,0.062,349.69,1.62,-96.75,1,,0,0,0,0,0,0,0,0,0,031.044395,-103.534966,1,12
23504,2147.065,50.23,908.88,6.421,19.623,7.756,0.000,-0.280,0.040,-0.125,0.375,0.125,349.69,1.62,-96.75,1,,0,0,0,0,0,0,0,0,0,031.044395,-103.534966,1,12
23505,2147.115,50.28,908.96,5.647,19.708,7.756,0.030,-0.280,0.040,0.000,0.125,-0.062,349.69,1.62,-96.75,1,,0,0,0,0,0,0,0,0,0,031.044395,-103.534966,1,12
23506,2147.166,50.28,908.96,5.647,19.708,7.756,0.000,-0.290,0.040,-0.062,0.187,0.000,349.69,1.62,-96.75,1,,0,0,0,0,0,0,0,0,0,031.044395,-103.534966,1,12
23507,2147.216,50.28,908.98,5.481,19.625,7.756,0.010,-0.290,0.010,-0.062,0.187,0.062,349.69,1.62,-96.75,1,,0,0,0,0,0,0,0,0,0,031.044395,-103.534966,1,12
23508,2147.267,50.28,908.98,5.481,19.625,7.756,0.000,-0.280,0.050,-0.062,0.312,-0.187,349.69,1.62,-96.75,1,,0,0,0,0,0,0,0,0,0,031.044395,-103.534966,1,12
23509,2147.362,50.28,908.94,5.846,19.661,7.756,0.010,-0.300,0.030,-0.062,-0.312,-0.125,349.69,1.62,-96.75,1,,0,0,0,0,0,0,0,0,0,031.044395,-103.534966,1,12
23510,2147.823,50.28,908.97,5.529,19.661,7.756,0.000,-0.300,0.060,0.000,0.312,0.062,349.69,1.62,-96.75,1,,0,0,0,0,0,0,0,0,0,031.044395,-103.534966,1,12
23511,2147.876,50.28,908.97,5.529,19.661,7.756,0.000,-0.260,0.060,0.187,0.375,0.000,349.69,1.62,-96.75,1,,0,0,0,0,0,0,0,0,0,031.044395,-103.534966,1,12
23512,2147.929,50.25,908.93,5.891,19.660,7.756,0.010,-0.290,0.050,0.187,0.062,0.062,349.69,1.62,-96.75,1,,0,0,0,0,0,0,0,0,0,031.044395,-103.534966,1,12
23513,2148.029,50.23,908.90,6.220,19.658,7.756,-0.010,-0.290,0.070,0.062,-0.250,-0.125,349.69,1.62,-96.75,1,,0,0,0,0,0,0,0,0,0,031.044395,-103.534966,1,12
23514,2148.081,50.23,908.90,6.220,19.658,7.756,0.000,-0.310,0.030,0.125,-0.375,-0.187,349.69,1.62,-96.75,1,,0,0,0,0,0,0,0,0,0,031.044395,-103.534966,1,12
23515,2148.131,50.28,908.96,5.663,19.673,7.756,-0.010,-0.290,0.000,0.125,-0.437,-0.250,349.69,1.62,-96.75,1,,0,0,0,0,0,0,0,0,0,031.044395,-103.534966,1,12
23516,2148.181,50.28,908.96,5.663,19.673,7.756,-0.020,-0.300,0.010,0.000,-0.375,0.000,349.69,1.62,-96.75,1,,0,0,0,0,0,0,0,0,0,031.044395,-103.534966,1,12
23517,2148.231,50.28,909.00,5.312,19.613,7.756,-0.020,-0.300,0.000,0.062,-0.375,0.000,349.69,1.62,-96.75,1,,0,0,0,0,0,0,0,0,0,031.044395,-103.534966,1,12
23518,2148.284,50.28,909.00,5.312,19.613,7.756,-0.020,-0.290,0.000,-0.125,-0.125,0.062,349.69,1.62,-96.75,1,,0,0,0,0,0,0,0,0,0,031.044395,-103.534966,1,12
23519,2148.337,50.29,908.99,5.346,19.626,7.756,-0.030,-0.310,0.030,-0.062,-0.125,0.125,349.69,1.62,-96.75,1,,0,0,0,0,0,0,0,0,0,031.044395,-103.534966,1,12
23520,2148.389,50.29,908.99,5.346,19.626,7.756,-0.010,-0.320,0.020,-0.062,0.250,0.125,349.69,1.62,-96.75,1,,0,0,0,0,0,0,0,0,0,031.044395,-103.534966,1,12
23521,2148.852,50.28,908.96,5.663,19.661,7.756,-0.010,-0.290,0.050,0.000,-0.687,0.062,349.75,1.62,-96.75,1,,0,0,0,0,0,0,0,0,0,031.044395,-103.534966,1,12
23522,2148.937,50.24,908.93,5.957,19.659,7.756,-0.030,-0.300,0.040,-0.062,-0.562,0.000,349.75,1.62,-96.75,1,,0,0,0,0,0,0,0,0,0,031.044395,-103.534966,1,12
23523,2148.988,50.24,908.93,5.957,19.659,7.756,-0.060,-0.280,0.030,0.062,-0.125,0.000,349.75,1.62,-96.75,1,,0,0,0,0,0,0,0,0,0,031.044395,-103.534966,1,12
23524,2149.039,50.24,908.90,6.221,19.659,7.756,-0.030,-0.300,0.000,-0.062,0.312,0.125,349.75,1.62,-96.75,1,,0,0,0,0,0,0,0,0,0,031.044395,-103.534966,1,12
23525,2149.089,50.24,908.90,6.221,19.659,7.756,0.000,-0.300,0.000,-0.062,0.312,0.062,349.75,1.62,-96.75,1,,0,0,0,0,0,0,0,0,0,031.044395,-103.534966,1,12
23526,2149.139,50.28,908.97,5.529,19.578,7.756,-0.010,-0.310,0.010,0.000,0.187,0.125,349.75,1.62,-96.75,1,,0,0,0,0,0,0,0,0,0,031.044395,-103.534966,1,12
23527,2149.195,50.28,908.96,5.630,19.625,7.756,0.020,-0.300,-0.010,-0.187,0.562,0.187,349.75,1.62,-96.75,1,,0,0,0,0,0,0,0,0,0,031.044395,-103.534966,1,12
23528,2149.247,50.28,908.96,5.630,19.625,7.756,0.010,-0.300,0.020,-0.187,0.562,0.000,349.75,1.62,-96.75,1,,0,0,0,0,0,0,0,0,0,031.044395,-103.534966,1,12
23529,2149.298,50.28,908.95,5.729,19.638,7.756,0.030,-0.300,0.000,0.000,0.500,0.000,349.75,1.62,-96.75,1,,0,0,0,0,0,0,0,0,0,031.044395,-103.534966,1,12
23530,2149.348,50.28,908.95,5.729,19.638,7.756,0.020,-0.260,0.040,-0.125,0.062,0.062,349.75,1.62,-96.75,1,,0,0,0,0,0,0,0,0,0,031.044395,-103.534966,1,12
23531,2149.399,50.28,908.95,5.762,19.638,7.756,0.000,-0.300,0.070,-0.062,-0.500,0.000,349.75,1.62,-96.75,1,,0,0,0,0,0,0,0,0,0,031.044395,-103.534966,1,12
23532,2149.861,50.28,908.96,5.662,19.638,7.756,-0.040,-0.290,0.010,-0.187,0.437,0.312,349.81,1.62,-96.75,1,,0,0,0,0,0,0,0,0,0,031.044395,-103.534966,1,12
23533,2149.911,50.25,908.90,6.224,19.612,7.756,0.000,-0.270,0.050,-0.062,0.500,0.125,349.81,1.62,-96.75,1,,0,0,0,0,0,0,0,0,0,031.044395,-103.534966,1,12
23534,2149.964,50.25,908.90,6.224,19.612,7.756,0.000,-0.310,0.070,-0.062,0.375,0.125,349.81,1.62,-96.75,1,,0,0,0,0,0,0,0,0,0,031.044395,-103.534966,1,12
23535,2150.015,50.23,908.87,6.487,19.706,7.756,0.000,-0.290,0.050,-0.125,0.375,0.125,349.81,1.62,-96.75,1,,0,0,0,0,0,0,0,0,0,031.044395,-103.534966,1,12
23536,2150.066,50.23,908.87,6.487,19.706,7.756,0.010,-0.290,0.050,0.125,0.375,-0.062,349.81,1.62,-96.75,1,,0,0,0,0,0,0,0,0,0,031.044395,-103.534966,1,12
23537,2150.117,50.29,908.96,5.679,19.649,7.756,0.000,-0.320,0.040,0.062,-0.062,-0.187,349.81,1.62,-96.75,1,,0,0,0,0,0,0,0,0,0,031.044395,-103.534966,1,12
23538,2150.167,50.29,908.96,5.679,19.649,7.756,0.000,-0.310,0.020,0.000,-0.312,-0.125,349.81,1.62,-96.75,1,,0,0,0,0,0,0,0,0,0,031.044395,-103.534966,1,12
23539,2150.217,50.28,908.95,5.781,19.649,7.756,0.000,-0.320,0.030,0.062,-0.437,0.000,349.81,1.62,-96.75,1,,0,0,0,0,0,0,0,0,0,031.044395,-103.534966,1,12
23540,2150.267,50.28,908.95,5.781,19.649,7.756,-0.060,-0.330,0.040,0.062,-0.500,-0.125,349.81,1.62,-96.75,1,,0,0,0,0,0,0,0,0,0,031.044395,-103.534966,1,12
23541,2150.320,50.28,908.95,5.730,19.613,7.756,-0.070,-0.330,0.010,0.062,-0.375,-0.187,349.81,1.62,-96.75,1,,0,0,0,0,0,0,0,0,0,031.044395,-103.534966,1,12
23542,2150.373,50.28,908.95,5.730,19.613,7.756,-0.030,-0.290,0.040,-0.062,-0.375,0.062,349.81,1.62,-96.75,1,,0,0,0,0,0,0,0,0,0,031.044395,-103.534966,1,12
23543,2150.456,50.28,908.98,5.495,19.638,7.756,-0.030,-0.280,0.030,0.000,0.062,0.000,349.81,1.62,-96.75,1,,0,0,0,0,0,0,0,0,0,031.044395,-103.534973,1,12
23544,2150.921,50.25,908.92,6.024,19.636,7.756,-0.030,-0.300,0.070,0.000,-0.875,-0.062,349.87,1.62,-96.75,1,,0,0,0,0,0,0,0,0,0,031.044395,-103.534973,1,12
23545,2150.973,50.25,908.92,6.024,19.636,7.756,-0.050,-0.290,0.030,0.000,-0.437,0.000,349.94,1.62,-96.75,1,,0,0,0,0,0,0,0,0,0,031.044395,-103.534973,1,12
23546,2151.023,50.23,908.86,6.604,19.694,7.756,-0.060,-0.300,0.040,0.000,0.062,0.000,349.94,1.62,-96.75,1,,0,0,0,0,0,0,0,0,0,031.044395,-103.534973,1,12
23547,2151.075,50.23,908.86,6.604,19.694,7.756,-0.050,-0.290,0.040,-0.187,0.312,0.125,349.94,1.62,-96.75,1,,0,0,0,0,0,0,0,0,0,031.044395,-103.534973,1,12
23548,2151.125,50.28,908.95,5.729,19.638,7.756,-0.020,-0.300,0.030,0.000,0.312,0.187,349.94,1.62,-96.75,1,,0,0,0,0,0,0,0,0,0,031.044395,-103.534973,1,12
23549,2151.233,50.28,908.93,5.895,19.625,7.756,0.000,-0.300,0.000,0.000,0.375,0.062,349.94,1.62,-96.75,1,,0,0,0,0,0,0,0,0,0,031.044395,-103.534973,1,12
23550,2151.283,50.28,908.93,5.895,19.625,7.756,0.020,-0.300,-0.010,-0.125,0.437,0.062,349.94,1.62,-96.75,1,,0,0,0,0,0,0,0,0,0,031.044395,-103.534973,1,12
23551,2151.334,50.28,908.95,5.695,19.638,7.756,0.000,-0.290,0.000,-0.062,0.500,0.062,349.94,1.62,-96.75,1,,0,0,0,0,0,0,0,0,0,031.044395,-103.534973,1,12
23552,2151.384,50.28,908.95,5.695,19.638,7.756,0.030,-0.280,0.030,0.000,0.625,0.062,349.94,1.62,-96.75,1,,0,0,0,0,0,0,0,0,0,031.044395,-103.534973,1,12
23553,2151.434,50.28,908.97,5.563,19.673,7.756,0.000,-0.300,0.050,-0.062,0.312,0.000,349.87,1.62,-96.75,1,,0,0,0,0,0,0,0,0,0,031.044395,-103.534973,1,12
23554,2151.490,50.28,908.97,5.563,19.673,7.756,0.010,-0.310,0.020,-0.062,0.000,0.187,349.87,1.62,-96.75,1,,0,0,0,0,0,0,0,0,0,031.044395,-103.534973,1,12
23555,2151.952,50.25,908.90,6.226,19.612,7.756,0.020,-0.290,0.030,-0.125,0.437,0.000,349.87,1.62,-96.75,1,,0,0,0,0,0,0,0,0,0,031.044395,-103.534973,1,12
23556,2152.033,50.22,908.84,6.736,19.611,7.756,0.000,-0.260,0.060,0.062,0.187,0.125,349.87,1.62,-96.75,1,,0,0,0,0,0,0,0,0,0,031.044395,-103.534973,1,12
23557,2152.085,50.22,908.84,6.736,19.611,7.756,-0.010,-0.300,0.010,0.000,0.312,0.000,349.87,1.62,-96.75,1,,0,0,0,0,0,0,0,0,0,031.044395,-103.534973,1,12
23558,2152.138,50.29,908.96,5.596,19.661,7.756,0.010,-0.290,0.000,-0.062,-0.250,0.125,349.87,1.62,-96.75,1,,0,0,0,0,0,0,0,0,0,031.044395,-103.534973,1,12
23559,2152.190,50.29,908.96,5.596,19.661,7.756,0.000,-0.300,-0.010,0.000,0.062,0.062,349.87,1.62,-96.75,1,,0,0,0,0,0,0,0,0,0,031.044395,-103.534973,1,12
23560,2152.240,50.28,908.93,5.931,19.519,7.756,0.000,-0.310,0.000,0.062,-0.125,-0.125,349.87,1.62,-96.75,1,,0,0,0,0,0,0,0,0,0,031.044395,-103.534973,1,12
23561,2152.292,50.28,908.93,5.931,19.530,7.756,0.000,-0.280,0.030,0.062,-0.187,-0.125,349.87,1.62,-96.75,1,,0,0,0,0,0,0,0,0,0,031.044395,-103.534973,1,12
23562,2152.342,50.28,908.97,5.512,19.530,7.756,-0.040,-0.300,0.040,0.062,0.000,-0.062,349.87,1.62,-96.75,1,,0,0,0,0,0,0,0,0,0,031.044395,-103.534973,1,12
23563,2152.393,50.28,908.97,5.512,19.602,7.756,-0.020,-0.290,0.050,-0.062,-0.125,0.062,349.87,1.62,-96.75,1,,0,0,0,0,0,0,0,0,0,031.044395,-103.534973,1,12
23564,2152.448,50.28,908.97,5.548,19.602,7.756,-0.020,-0.290,0.040,-0.250,0.437,0.062,349.87,1.62,-96.75,1,,0,0,0,0,0,0,0,0,0,031.044395,-103.534973,1,12
23565,2152.499,50.29,908.97,5.530,19.603,7.756,0.000,-0.270,0.030,0.000,0.187,0.000,349.87,1.62,-96.75,1,,0,0,0,0,0,0,0,0,0,031.044395,-103.534973,1,12
23566,2152.960,50.25,908.89,6.308,19.589,7.756,0.010,-0.290,0.040,0.000,0.125,0.000,349.87,1.62,-96.75,1,,0,0,0,0,0,0,0,0,0,031.044395,-103.534973,1,12
23567,2153.013,50.23,908.88,6.421,19.600,7.756,0.010,-0.300,0.030,0.000,-0.187,0.125,349.87,1.62,-96.75,1,,0,0,0,0,0,0,0,0,0,031.044395,-103.534973,1,12
23568,2153.066,50.23,908.88,6.421,19.600,7.756,0.000,-0.290,0.050,0.062,-0.250,0.000,349.87,1.62,-96.75,1,,0,0,0,0,0,0,0,0,0,031.044395,-103.534973,1,12
23569,2153.118,50.28,908.95,5.779,19.590,7.756,0.000,-0.290,0.020,0.062,0.000,-0.125,349.87,1.62,-96.75,1,,0,0,0,0,0,0,0,0,0,031.044395,-103.534973,1,12
23570,2153.168,50.28,908.95,5.779,19.590,7.756,0.000,-0.300,0.010,-0.062,-0.062,-0.062,349.87,1.62,-96.75,1,,0,0,0,0,0,0,0,0,0,031.044395,-103.534973,1,12
23571,2153.220,50.28,908.97,5.529,19.530,7.756,0.040,-0.300,0.040,0.062,0.062,0.000,349.87,1.62,-96.75,1,,0,0,0,0,0,0,0,0,0,031.044395,-103.534973,1,12
23572,2153.270,50.28,908.97,5.529,19.530,7.756,0.000,-0.290,0.000,0.062,-0.187,-0.187,349.87,1.62,-96.75,1,,0,0,0,0,0,0,0,0,0,031.044395,-103.534973,1,12
23573,2153.322,50.28,908.92,5.995,19.638,7.756,0.020,-0.310,0.030,0.000,-0.125,0.062,349.87,1.62,-96.75,1,,0,0,0,0,0,0,0,0,0,031.044395,-103.534973,1,12
23574,2153.376,50.28,908.92,5.995,19.638,7.756,-0.030,-0.280,0.040,-0.125,-0.125,0.000,349.87,1.62,-96.75,1,,0,0,0,0,0,0,0,0,0,031.044395,-103.534973,1,12
23575,2153.427,50.28,908.93,5.962,19.590,7.756,0.000,-0.320,0.040,0.125,0.000,-0.125,349.87,1.62,-96.75,1,,0,0,0,0,0,0,0,0,0,031.044395,-103.534973,1,12
23576,2153.528,50.28,908.93,5.929,19.566,7.756,-0.020,-0.310,0.010,0.125,0.000,-0.062,349.87,1.62,-96.75,1,,0,0,0,0,0,0,0,0,0,031.044395,-103.534973,1,12
23577,2154.024,50.22,908.87,6.503,19.563,7.756,0.000,-0.300,0.060,-0.062,0.125,0.000,349.87,1.62,-96.75,1,,0,0,0,0,0,0,0,0,0,031.044395,-103.534973,1,12
23578,2154.076,50.22,908.87,6.503,19.563,7.756,-0.010,-0.280,0.010,0.000,0.125,-0.062,349.87,1.62,-96.75,1,,0,0,0,0,0,0,0,0,0,031.044395,-103.534973,1,12
23579,2154.126,50.29,908.96,5.646,19.520,7.756,-0.010,-0.280,0.070,-0.062,0.000,-0.062,349.87,1.62,-96.75,1,,0,0,0,0,0,0,0,0,0,031.044395,-103.534973,1,12
23580,2154.181,50.29,908.96,5.646,19.520,7.756,-0.010,-0.310,0.000,0.187,0.000,-0.062,349.87,1.62,-96.75,1,,0,0,0,0,0,0,0,0,0,031.044395,-103.534973,1,12
23581,2154.234,50.29,908.96,5.613,19.578,7.756,-0.010,-0.280,-0.010,-0.062,-0.187,0.125,349.87,1.62,-96.75,1,,0,0,0,0,0,0,0,0,0,031.044395,-103.534973,1,12
23582,2154.285,50.29,908.96,5.613,19.578,7.756,-0.030,-0.280,-0.030,-0.125,0.000,-0.062,349.87,1.62,-96.75,1,,0,0,0,0,0,0,0,0,0,031.044395,-103.534973,1,12
23583,2154.336,50.29,908.98,5.496,19.626,7.756,0.000,-0.310,0.000,0.062,0.250,-0.125,349.87,1.62,-96.75,1,,0,0,0,0,0,0,0,0,0,031.044395,-103.534973,1,12
23584,2154.387,50.29,908.98,5.496,19.626,7.756,-0.010,-0.290,-0.010,0.000,0.250,-0.062,349.87,1.62,-96.75,1,,0,0,0,0,0,0,0,0,0,031.044395,-103.534973,1,12
23585,2154.437,50.28,908.95,5.745,19.543,7.756,0.000,-0.280,0.030,0.062,0.375,0.125,349.87,1.62,-96.75,1,,0,0,0,0,0,0,0,0,0,031.044395,-103.534973,1,12
23586,2154.489,50.28,908.95,5.745,19.543,7.756,0.010,-0.300,0.020,-0.187,-0.062,0.000,349.87,1.62,-96.75,1,,0,0,0,0,0,0,0,0,0,031.044395,-103.534973,1,12
23587,2154.543,50.29,908.98,5.431,19.520,7.756,-0.020,-0.320,0.040,-0.125,-0.187,0.000,349.87,1.62,-96.75,1,,0,0,0,0,0,0,0,0,0,031.044395,-103.534973,1,12
23588,2155.005,50.22,908.86,6.553,19.563,7.756,0.000,-0.300,0.030,0.000,0.000,0.062,349.94,1.62,-96.75,1,,0,0,0,0,0,0,0,0,0,031.044395,-103.534973,1,12
23589,2155.055,50.22,908.86,6.553,19.563,7.756,0.000,-0.290,0.050,0.000,0.000,0.062,349.94,1.62,-96.75,1,,0,0,0,0,0,0,0,0,0,031.044395,-103.534973,1,12
23590,2155.142,50.28,908.92,6.029,19.555,7.756,0.000,-0.280,0.050,-0.062,-0.062,0.000,349.94,1.62,-96.75,1,,0,0,0,0,0,0,0,0,0,031.044395,-103.534973,1,12
23591,2155.193,50.29,908.92,6.029,19.555,7.756,0.010,-0.290,0.040,0.000,-0.375,0.000,349.94,1.62,-96.75,1,,0,0,0,0,0,0,0,0,0,031.044395,-103.534973,1,12
23592,2155.244,50.29,908.95,5.746,19.555,7.756,0.050,-0.300,0.020,0.000,-0.312,0.062,349.94,1.62,-96.75,1,,0,0,0,0,0,0,0,0,0,031.044395,-103.534973,1,12
23593,2155.294,50.29,908.95,5.663,19.578,7.756,0.000,-0.290,0.000,0.000,-0.812,-0.125,349.94,1.62,-96.75,1,,0,0,0,0,0,0,0,0,0,031.044395,-103.534973,1,12
23594,2155.345,50.29,908.96,5.663,19.578,7.756,-0.040,-0.320,0.000,0.062,-0.500,-0.125,350.00,1.62,-96.75,1,,0,0,0,0,0,0,0,0,0,031.044395,-103.534973,1,12
23595,2155.395,50.29,908.97,5.513,19.566,7.756,-0.030,-0.280,0.000,-0.062,-0.562,0.062,350.00,1.62,-96.75,1,,0,0,0,0,0,0,0,0,0,031.044395,-103.534973,1,12
23596,2155.445,50.29,908.97,5.513,19.566,7.756,-0.020,-0.310,0.020,-0.062,-0.312,-0.125,350.00,1.62,-96.75,1,,0,0,0,0,0,0,0,0,0,031.044395,-103.534973,1,12
23597,2155.553,50.28,908.96,5.612,19.543,7.756,-0.040,-0.300,0.040,-0.125,0.625,-0.062,350.00,1.62,-96.75,1,,0,0,0,0,0,0,0,0,0,031.044395,-103.534973,1,12
23598,2156.017,50.22,908.89,6.301,19.552,7.756,-0.010,-0.310,0.030,-0.062,-0.187,0.000,349.94,1.62,-96.75,1,,0,0,0,0,0,0,0,0,0,031.044395,-103.534973,1,12
23599,2156.070,50.22,908.89,6.301,19.552,7.756,-0.040,-0.300,0.040,0.000,0.125,0.187,349.94,1.62,-96.75,1,,0,0,0,0,0,0,0,0,0,031.044395,-103.534973,1,12
23600,2156.121,50.28,908.97,5.595,19.507,7.756,-0.030,-0.290,0.000,0.000,0.312,0.062,349.94,1.62,-96.75,1,,0,0,0,0,0,0,0,0,0,031.044395,-103.534973,1,12
23601,2156.172,50.28,908.97,5.595,19.507,7.756,0.000,-0.290,0.020,-0.125,0.312,0.000,349.94,1.62,-96.75,1,,0,0,0,0,0,0,0,0,0,031.044395,-103.534973,1,12
23602,2156.222,50.28,908.93,5.930,19.495,7.756,0.010,-0.290,0.000,0.062,0.312,0.000,349.94,1.62,-96.75,1,,0,0,0,0,0,0,0,0,0,031.044395,-103.534973,1,12
23603,2156.272,50.28,908.93,5.930,19.495,7.756,-0.010,-0.280,0.010,0.000,0.062,0.125,349.94,1.62,-96.75,1,,0,0,0,0,0,0,0,0,0,031.044395,-103.534973,1,12
23604,2156.324,50.28,908.95,5.714,19.590,7.756,0.000,-0.300,0.000,-0.062,0.250,0.062,349.94,1.62,-96.75,1,,0,0,0,0,0,0,0,0,0,031.044395,-103.534973,1,12
23605,2156.375,50.28,908.95,5.714,19.590,7.756,0.000,-0.300,0.000,0.062,0.187,0.000,349.94,1.62,-96.75,1,,0,0,0,0,0,0,0,0,0,031.044395,-103.534973,1,12
23606,2156.428,50.28,908.97,5.529,19.590,7.756,-0.010,-0.330,0.000,-0.062,0.125,0.062,349.94,1.62,-96.75,1,,0,0,0,0,0,0,0,0,0,031.044395,-103.534973,1,12
23607,2156.482,50.28,908.97,5.529,19.590,7.756,0.000,-0.290,0.030,0.000,0.187,0.000,349.94,1.62,-96.75,1,,0,0,0,0,0,0,0,0,0,031.044395,-103.534973,1,12
23608,2156.532,50.28,908.96,5.612,19.460,7.756,-0.020,-0.280,0.000,0.062,-0.187,0.187,349.94,1.62,-96.75,1,,0,0,0,0,0,0,0,0,0,031.044395,-103.534973,1,12
23609,2156.582,50.28,908.96,5.612,19.460,7.756,-0.030,-0.300,0.020,0.062,0.000,-0.062,349.94,1.62,-96.75,1,,0,0,0,0,0,0,0,0,0,031.044395,-103.534973,1,12
23610,2157.078,50.22,908.90,6.218,19.540,7.756,0.000,-0.280,0.000,0.000,0.125,0.000,349.87,1.62,-96.75,1,,0,0,0,0,0,0,0,0,0,031.044395,-103.534973,1,12
23611,2157.129,50.28,908.99,5.379,19.578,7.756,-0.020,-0.280,0.060,-0.062,0.000,0.000,349.87,1.62,-96.75,1,,0,0,0,0,0,0,0,0,0,031.044395,-103.534973,1,12
23612,2157.179,50.28,908.99,5.379,19.578,7.756,-0.020,-0.280,0.010,0.000,-0.062,0.000,349.87,1.62,-96.75,1,,0,0,0,0,0,0,0,0,0,031.044395,-103.534973,1,12
23613,2157.229,50.29,908.98,5.430,19.531,7.756,0.000,-0.320,0.000,0.062,-0.125,0.125,349.87,1.62,-96.75,1,,0,0,0,0,0,0,0,0,0,031.044395,-103.534973,1,12
23614,2157.281,50.29,908.98,5.430,19.531,7.756,0.000,-0.290,0.040,0.000,0.000,-0.062,349.87,1.62,-96.75,1,,0,0,0,0,0,0,0,0,0,031.044395,-103.534973,1,12
23615,2157.334,50.29,908.98,5.463,19.531,7.756,-0.010,-0.290,0.020,-0.062,-0.187,0.000,349.87,1.62,-96.75,1,,0,0,0,0,0,0,0,0,0,031.044395,-103.534973,1,12
23616,2157.387,50.29,908.98,5.463,19.531,7.756,0.020,-0.310,0.020,0.000,-0.062,0.062,349.87,1.62,-96.75,1,,0,0,0,0,0,0,0,0,0,031.044395,-103.534973,1,12
23617,2157.438,50.28,908.95,5.745,19.566,7.756,0.000,-0.290,0.040,-0.062,0.187,0.000,349.87,1.62,-96.75,1,,0,0,0,0,0,0,0,0,0,031.044395,-103.534973,1,12
23618,2157.488,50.28,908.95,5.745,19.566,7.756,0.010,-0.290,0.080,0.000,0.062,-0.062,349.87,1.62,-96.75,1,,0,0,0,0,0,0,0,0,0,031.044395,-103.534973,1,12
23619,2157.538,50.29,908.96,5.646,19.460,7.756,-0.010,-0.300,0.050,0.000,-0.062,-0.125,349.87,1.62,-96.75,1,,0,0,0,0,0,0,0,0,0,031.044395,-103.534973,1,12
23620,2157.590,50.29,908.96,5.646,19.460,7.756,0.000,-0.300,0.020,0.062,-0.375,0.000,349.87,1.62,-96.75,1,,0,0,0,0,0,0,0,0,0,031.044395,-103.534973,1,12
23621,2158.054,50.23,908.85,6.704,19.528,7.756,-0.010,-0.300,0.060,0.125,0.437,0.000,349.87,1.62,-96.75,1,,0,0,0,0,0,0,0,0,0,031.044395,-103.534973,1,12
23622,2158.106,50.29,908.95,5.729,19.520,7.756,0.020,-0.270,0.070,0.062,0.187,0.062,349.87,1.62,-96.75,1,,0,0,0,0,0,0,0,0,0,031.044395,-103.534973,1,12
23623,2158.187,50.29,908.95,5.729,19.520,7.756,0.030,-0.300,0.020,0.125,-0.125,-0.125,349.87,1.62,-96.75,1,,0,0,0,0,0,0,0,0,0,031.044395,-103.534973,1,12
23624,2158.239,50.29,908.94,5.829,19.425,7.756,0.030,-0.310,0.030,0.000,-0.437,-0.187,349.87,1.62,-96.75,1,,0,0,0,0,0,0,0,0,0,031.044395,-103.534973,1,12
23625,2158.289,50.29,908.94,5.829,19.425,7.756,0.010,-0.300,0.030,-0.062,-0.687,-0.125,349.87,1.62,-96.75,1,,0,0,0,0,0,0,0,0,0,031.044395,-103.534973,1,12
23626,2158.339,50.29,908.96,5.646,19.483,7.756,0.000,-0.310,0.000,0.125,-0.687,-0.375,349.94,1.62,-96.75,1,,0,0,0,0,0,0,0,0,0,031.044395,-103.534973,1,12
23627,2158.391,50.29,908.96,5.646,19.483,7.756,-0.010,-0.320,0.020,0.062,-0.750,-0.062,349.94,1.62,-96.75,1,,0,0,0,0,0,0,0,0,0,031.044395,-103.534973,1,12
23628,2158.442,50.29,908.99,5.397,19.520,7.756,-0.030,-0.300,0.060,0.062,-0.375,-0.125,349.94,1.62,-96.75,1,,0,0,0,0,0,0,0,0,0,031.044395,-103.534973,1,12
23629,2158.494,50.29,908.99,5.414,19.555,7.756,-0.020,-0.310,0.060,0.187,-0.125,0.000,349.94,1.62,-96.75,1,,0,0,0,0,0,0,0,0,0,031.044395,-103.534973,1,12
23630,2158.546,50.29,908.99,5.382,19.555,7.756,-0.020,-0.310,0.040,0.062,-0.250,-0.062,349.94,1.62,-96.75,1,,0,0,0,0,0,0,0,0,0,031.044395,-103.534973,1,12
23631,2158.596,50.29,908.96,5.596,19.520,7.756,-0.030,-0.310,0.020,-0.062,-0.312,0.000,349.94,1.62,-96.75,1,,0,0,0,0,0,0,0,0,0,031.044395,-103.534973,1,12
23632,2159.058,50.22,908.88,6.368,19.528,7.756,0.020,-0.320,0.070,0.062,-0.375,0.000,349.94,1.62,-96.75,1,,0,0,0,0,0,0,0,0,0,031.044395,-103.534973,1,12
23633,2159.113,50.28,908.97,5.595,19.519,7.756,0.010,-0.300,0.050,0.000,-0.250,0.062,349.94,1.62,-96.75,1,,0,0,0,0,0,0,0,0,0,031.044395,-103.534973,1,12
23634,2159.164,50.28,908.97,5.595,19.519,7.756,0.000,-0.290,0.020,0.000,-0.250,-0.125,349.94,1.62,-96.75,1,,0,0,0,0,0,0,0,0,0,031.044395,-103.534973,1,12
23635,2159.214,50.28,908.96,5.629,19.543,7.756,0.020,-0.320,0.000,0.062,-0.312,-0.062,349.94,1.62,-96.75,1,,0,0,0,0,0,0,0,0,0,031.044395,-103.534973,1,12
23636,2159.264,50.28,908.96,5.629,19.543,7.756,0.000,-0.310,0.000,0.062,-0.250,0.062,349.94,1.62,-96.75,1,,0,0,0,0,0,0,0,0,0,031.044395,-103.534973,1,12
23637,2159.316,50.29,908.95,5.729,19.508,7.756,0.010,-0.290,0.000,0.000,-0.437,0.125,349.94,1.62,-96.75,1,,0,0,0,0,0,0,0,0,0,031.044395,-103.534973,1,12
23638,2159.367,50.29,908.95,5.729,19.508,7.756,-0.040,-0.310,0.000,-0.125,-0.250,0.000,349.94,1.62,-96.75,1,,0,0,0,0,0,0,0,0,0,031.044395,-103.534973,1,12
23639,2159.471,50.29,908.95,5.713,19.472,7.756,-0.040,-0.320,0.030,-0.187,-0.312,0.125,349.94,1.62,-96.75,1,,0,0,0,0,0,0,0,0,0,031.044395,-103.534973,1,12
23640,2159.523,50.29,908.94,5.864,19.543,7.756,-0.050,-0.280,0.020,-0.187,0.250,0.000,349.94,1.62,-96.75,1,,0,0,0,0,0,0,0,0,0,031.044395,-103.534973,1,12
23641,2159.574,50.29,908.94,5.864,19.543,7.756,-0.020,-0.310,0.010,0.000,0.187,-0.062,349.94,1.62,-96.75,1,,0,0,0,0,0,0,0,0,0,031.044395,-103.534973,1,12
23642,2159.624,50.28,908.95,5.712,19.530,7.756,0.000,-0.310,0.020,0.000,0.500,0.125,349.94,1.62,-96.75,1,,0,0,0,0,0,0,0,0,0,031.044395,-103.534973,1,12
23643,2160.120,50.28,908.95,5.712,19.543,7.756,-0.020,-0.270,0.000,-0.062,-0.375,0.062,349.94,1.62,-96.75,1,,0,0,0,0,0,0,0,0,0,031.044395,-103.534973,1,12
23644,2160.171,50.28,908.95,5.712,19.543,7.756,-0.020,-0.300,0.000,0.000,-0.062,0.062,349.94,1.62,-96.75,1,,0,0,0,0,0,0,0,0,0,031.044395,-103.534973,1,12
23645,2160.222,50.28,908.94,5.796,19.448,7.756,-0.030,-0.310,0.020,0.062,0.187,-0.062,349.94,1.62,-96.75,1,,0,0,0,0,0,0,0,0,0,031.044395,-103.534973,1,12
23646,2160.331,50.29,908.96,5.613,19.543,7.756,-0.020,-0.290,0.040,0.000,0.500,0.000,349.94,1.62,-96.75,1,,0,0,0,0,0,0,0,0,0,031.044395,-103.534973,1,12
23647,2160.382,50.29,908.96,5.613,19.543,7.756,-0.050,-0.330,0.000,0.062,0.375,0.125,349.94,1.62,-96.75,1,,0,0,0,0,0,0,0,0,0,031.044395,-103.534973,1,12
23648,2160.432,50.29,908.96,5.647,19.483,7.756,-0.030,-0.290,0.020,0.062,0.312,0.125,349.94,1.62,-96.75,1,,0,0,0,0,0,0,0,0,0,031.044395,-103.534973,1,12
23649,2160.482,50.29,908.96,5.647,19.483,7.756,-0.020,-0.310,0.030,0.000,0.500,0.125,349.94,1.62,-96.75,1,,0,0,0,0,0,0,0,0,0,031.044395,-103.534973,1,12
23650,2160.534,50.29,908.95,5.730,19.555,7.756,0.000,-0.290,0.030,0.000,0.437,0.125,349.94,1.62,-96.75,1,,0,0,0,0,0,0,0,0,0,031.044395,-103.534973,1,12
23651,2160.584,50.29,908.95,5.730,19.555,7.756,-0.010,-0.310,0.040,0.000,0.562,0.125,349.94,1.62,-96.75,1,,0,0,0,0,0,0,0,0,0,031.044395,-103.534973,1,12
23652,2160.634,50.29,908.99,5.397,19.483,7.756,-0.020,-0.300,0.050,0.062,0.437,-0.062,349.94,1.62,-96.75,1,,0,0,0,0,0,0,0,0,0,031.044395,-103.534973,1,12
23653,2161.099,50.29,908.91,6.097,19.543,7.756,-0.010,-0.300,0.050,0.000,0.062,-0.062,350.00,1.62,-96.75,1,,0,0,0,0,0,0,0,0,0,031.044395,-103.534973,1,12
23654,2161.149,50.29,908.91,6.097,19.543,7.756,-0.010,-0.280,0.030,0.062,0.125,0.062,350.00,1.62,-96.75,1,,0,0,0,0,0,0,0,0,0,031.044395,-103.534973,1,12
23655,2161.231,50.29,908.95,5.729,19.531,7.756,0.030,-0.290,0.040,-0.125,-0.187,-0.062,350.00,1.62,-96.75,1,,0,0,0,0,0,0,0,0,0,031.044397,-103.534973,1,12
23656,2161.282,50.29,908.95,5.729,19.531,7.756,0.000,-0.290,0.020,0.125,0.062,-0.062,350.00,1.62,-96.75,1,,0,0,0,0,0,0,0,0,0,031.044397,-103.534973,1,12
23657,2161.333,50.29,908.94,5.832,19.508,7.756,0.000,-0.290,0.020,-0.062,-0.312,-0.062,350.00,1.62,-96.75,1,,0,0,0,0,0,0,0,0,0,031.044397,-103.534973,1,12
23658,2161.383,50.29,908.94,5.832,19.508,7.756,-0.010,-0.270,0.030,0.000,-0.312,-0.062,350.00,1.62,-96.75,1,,0,0,0,0,0,0,0,0,0,031.044397,-103.534973,1,12
23659,2161.433,50.29,908.92,6.014,19.566,7.756,-0.020,-0.280,0.040,-0.062,-0.250,-0.062,350.00,1.62,-96.75,1,,0,0,0,0,0,0,0,0,0,031.044397,-103.534973,1,12
23660,2161.488,50.29,908.92,6.014,19.566,7.756,-0.010,-0.290,0.010,-0.125,-0.375,0.000,350.00,1.62,-96.75,1,,0,0,0,0,0,0,0,0,0,031.044397,-103.534973,1,12
23661,2161.539,50.29,908.93,5.947,19.531,7.756,-0.030,-0.280,0.040,0.000,0.125,-0.062,350.00,1.62,-96.75,1,,0,0,0,0,0,0,0,0,0,031.044397,-103.534973,1,12
23662,2161.589,50.29,908.93,5.947,19.531,7.756,-0.060,-0.300,0.050,-0.062,0.500,0.062,350.00,1.62,-96.75,1,,0,0,0,0,0,0,0,0,0,031.044397,-103.534973,1,12
23663,2161.640,50.29,908.92,5.980,19.483,7.756,-0.020,-0.280,0.030,-0.125,0.437,0.000,350.00,1.62,-96.75,1,,0,0,0,0,0,0,0,0,0,031.044397,-103.534973,1,12
23664,2162.105,50.29,908.97,5.563,19.531,7.756,-0.020,-0.300,0.000,0.125,-0.125,0.000,350.00,1.62,-96.75,1,,0,0,0,0,0,0,0,0,0,031.044397,-103.534973,1,12
23665,2162.156,50.29,908.97,5.563,19.531,7.756,-0.030,-0.290,0.020,0.000,-0.375,-0.062,350.00,1.62,-96.75,1,,0,0,0,0,0,0,0,0,0,031.044397,-103.534973,1,12
23666,2162.208,50.29,908.95,5.730,19.520,7.756,-0.010,-0.260,0.020,0.000,-0.125,-0.125,350.00,1.62,-96.75,1,,0,0,0,0,0,0,0,0,0,031.044397,-103.534973,1,12
23667,2162.258,50.29,908.95,5.730,19.520,7.756,0.000,-0.310,0.040,0.000,0.000,0.000,350.00,1.62,-96.75,1,,0,0,0,0,0,0,0,0,0,031.044397,-103.534973,1,12
23668,2162.308,50.29,908.98,5.414,19.520,7.756,0.000,-0.300,0.010,0.062,0.437,0.125,350.00,1.62,-96.75,1,,0,0,0,0,0,0,0,0,0,031.044397,-103.534973,1,12
23669,2162.358,50.29,908.98,5.414,19.520,7.756,0.010,-0.300,-0.010,-0.125,0.125,0.000,350.00,1.62,-96.75,1,,0,0,0,0,0,0,0,0,0,031.044397,-103.534973,1,12
23670,2162.411,50.29,908.94,5.796,19.531,7.756,-0.010,-0.290,0.040,0.000,-0.312,0.125,350.00,1.62,-96.75,1,,0,0,0,0,0,0,0,0,0,031.044397,-103.534973,1,12
23671,2162.464,50.29,908.94,5.796,19.531,7.756,0.000,-0.280,0.000,-0.125,-0.312,0.062,350.00,1.62,-96.75,1,,0,0,0,0,0,0,0,0,0,031.044397,-103.534973,1,12
23672,2162.516,50.28,908.97,5.595,19.530,7.756,-0.030,-0.300,0.030,0.125,-0.312,0.062,350.00,1.62,-96.75,1,,0,0,0,0,0,0,0,0,0,031.044397,-103.534973,1,12
23673,2162.567,50.28,908.97,5.595,19.530,7.756,0.000,-0.300,0.010,0.000,0.062,0.000,350.00,1.62,-96.75,1,,0,0,0,0,0,0,0,0,0,031.044397,-103.534973,1,12
23674,2162.617,50.29,908.95,5.780,19.566,7.756,-0.030,-0.300,0.020,0.000,0.250,0.125,350.00,1.62,-96.75,1,,0,0,0,0,0,0,0,0,0,031.044397,-103.534973,1,12
23675,2162.667,50.29,908.95,5.780,19.566,7.756,0.010,-0.310,0.020,-0.062,-0.187,-0.062,350.00,1.62,-96.75,1,,0,0,0,0,0,0,0,0,0,031.044397,-103.534973,1,12
23676,2163.164,50.29,908.94,5.797,19.520,7.756,-0.020,-0.290,0.030,-0.125,0.500,0.062,350.00,1.62,-96.75,1,,0,0,0,0,0,0,0,0,0,031.044397,-103.534973,1,12
23677,2163.215,50.29,908.92,5.996,19.472,7.756,0.010,-0.300,0.030,0.000,0.500,0.062,350.00,1.62,-96.75,1,,0,0,0,0,0,0,0,0,0,031.044397,-103.534973,1,12
23678,2163.265,50.29,908.92,5.996,19.472,7.756,0.000,-0.280,0.030,-0.062,0.625,-0.062,350.00,1.62,-96.75,1,,0,0,0,0,0,0,0,0,0,031.044397,-103.534973,1,12
23679,2163.315,50.29,908.92,5.980,19.495,7.756,0.010,-0.300,0.040,-0.062,0.000,0.062,350.00,1.62,-96.75,1,,0,0,0,0,0,0,0,0,0,031.044397,-103.534973,1,12
23680,2163.367,50.29,908.92,5.980,19.495,7.756,0.000,-0.270,0.020,-0.062,-0.125,-0.125,350.00,1.62,-96.75,1,,0,0,0,0,0,0,0,0,0,031.044397,-103.534973,1,12
23681,2163.418,50.29,908.94,5.863,19.508,7.756,0.030,-0.300,0.020,0.000,-0.187,-0.062,350.00,1.62,-96.75,1,,0,0,0,0,0,0,0,0,0,031.044397,-103.534973,1,12
23682,2163.472,50.29,908.94,5.863,19.508,7.756,-0.010,-0.300,0.040,-0.125,-0.500,-0.062,350.00,1.62,-96.75,1,,0,0,0,0,0,0,0,0,0,031.044397,-103.534973,1,12
23683,2163.524,50.29,908.95,5.729,19.531,7.756,-0.010,-0.310,0.020,0.000,-0.125,-0.125,350.00,1.62,-96.75,1,,0,0,0,0,0,0,0,0,0,031.044397,-103.534973,1,12
23684,2163.574,50.29,908.95,5.729,19.531,7.756,-0.030,-0.280,0.030,0.125,-0.125,0.062,350.00,1.62,-96.75,1,,0,0,0,0,0,0,0,0,0,031.044397,-103.534973,1,12
23685,2163.624,50.29,908.95,5.729,19.460,7.756,-0.030,-0.310,0.030,-0.062,0.125,0.000,350.00,1.62,-96.75,1,,0,0,0,0,0,0,0,0,0,031.044397,-103.534973,1,12
23686,2163.678,50.29,908.95,5.729,19.460,7.756,-0.050,-0.320,0.020,0.062,0.062,-0.125,350.00,1.62,-96.75,1,,0,0,0,0,0,0,0,0,0,031.044397,-103.534973,1,12
23687,2164.141,50.29,908.92,5.980,19.495,7.756,0.010,-0.310,0.040,0.125,-1.062,-0.187,350.06,1.62,-96.75,1,,0,0,0,0,0,0,0,0,0,031.044397,-103.534973,1,12
23688,2164.192,50.29,908.92,5.980,19.495,7.756,0.020,-0.280,0.020,0.250,-1.250,-0.125,350.12,1.56,-96.75,1,,0,0,0,0,0,0,0,0,0,031.044397,-103.534973,1,12
23689,2164.273,50.28,908.90,6.214,19.507,7.756,0.010,-0.310,0.020,0.125,-1.250,-0.062,350.25,1.56,-96.75,1,,0,0,0,0,0,0,0,0,0,031.044397,-103.534973,1,12
23690,2164.325,50.29,908.91,6.063,19.483,7.756,-0.010,-0.310,0.030,0.250,-0.937,-0.250,350.25,1.56,-96.75,1,,0,0,0,0,0,0,0,0,0,031.044397,-103.534973,1,12
23691,2164.375,50.29,908.91,6.063,19.483,7.756,-0.050,-0.280,0.080,0.062,-0.500,-0.250,350.31,1.56,-96.75,1,,0,0,0,0,0,0,0,0,0,031.044397,-103.534973,1,12
23692,2164.425,50.29,908.90,6.229,19.566,7.756,-0.020,-0.290,0.050,0.062,-0.187,-0.187,350.31,1.56,-96.75,1,,0,0,0,0,0,0,0,0,0,031.044397,-103.534973,1,12
23693,2164.477,50.29,908.90,6.229,19.566,7.756,-0.010,-0.290,0.030,0.062,-0.625,0.062,350.31,1.56,-96.75,1,,0,0,0,0,0,0,0,0,0,031.044397,-103.534973,1,12
23694,2164.584,50.28,908.88,6.396,19.555,7.756,-0.050,-0.290,0.040,0.000,-0.437,0.062,350.37,1.56,-96.75,1,,0,0,0,0,0,0,0,0,0,031.044397,-103.534973,1,12
23695,2164.636,50.29,908.92,6.048,19.508,7.756,-0.040,-0.310,0.030,0.062,-0.125,0.000,350.37,1.56,-96.75,1,,0,0,0,0,0,0,0,0,0,031.044397,-103.534973,1,12
23696,2164.690,50.29,908.92,6.048,19.508,7.756,-0.020,-0.300,0.000,0.187,0.312,0.125,350.37,1.56,-96.75,1,,0,0,0,0,0,0,0,0,0,031.044397,-103.534973,1,12
23697,2165.151,50.29,908.91,6.148,19.508,7.756,0.010,-0.290,-0.010,0.125,-1.062,0.062,350.50,1.56,-96.75,1,,0,0,0,0,0,0,0,0,0,031.044397,-103.534973,1,12
23698,2165.201,50.29,908.89,6.264,19.483,7.756,-0.010,-0.300,0.000,0.187,-0.687,-0.125,350.50,1.56,-96.75,1,,0,0,0,0,0,0,0,0,0,031.044397,-103.534973,1,12
23699,2165.251,50.29,908.89,6.264,19.483,7.756,-0.030,-0.310,-0.010,0.062,-0.250,0.000,350.50,1.56,-96.75,1,,0,0,0,0,0,0,0,0,0,031.044397,-103.534973,1,12
23700,2165.300,50.29,908.89,6.247,19.483,7.756,-0.020,-0.320,0.050,-0.062,-0.125,0.000,350.50,1.56,-96.75,1,,0,0,0,0,0,0,0,0,0,031.044397,-103.534973,1,12
23701,2165.351,50.29,908.89,6.247,19.483,7.756,-0.010,-0.290,0.040,0.125,0.312,0.062,350.50,1.56,-96.75,1,,0,0,0,0,0,0,0,0,0,031.044397,-103.534973,1,12
23702,2165.452,50.29,908.91,6.097,19.483,7.756,-0.020,-0.280,0.030,0.125,-0.125,0.062,350.50,1.56,-96.75,1,,0,0,0,0,0,0,0,0,0,031.044397,-103.534973,1,12
23703,2165.507,50.29,908.92,6.031,19.483,7.756,-0.030,-0.320,0.010,0.062,-0.312,0.125,350.50,1.56,-96.75,1,,0,0,0,0,0,0,0,0,0,031.044397,-103.534973,1,12
23704,2165.559,50.29,908.92,6.031,19.483,7.756,0.040,-0.300,0.020,0.062,-0.437,0.062,350.50,1.56,-96.75,1,,0,0,0,0,0,0,0,0,0,031.044397,-103.534973,1,12
23705,2165.609,50.29,908.91,6.147,19.483,7.756,0.030,-0.300,0.000,0.125,-0.250,-0.062,350.50,1.56,-96.75,1,,0,0,0,0,0,0,0,0,0,031.044397,-103.534973,1,12
23706,2165.661,50.29,908.91,6.147,19.483,7.756,0.000,-0.290,0.000,0.187,-0.312,-0.187,350.50,1.56,-96.75,1,,0,0,0,0,0,0,0,0,0,031.044397,-103.534973,1,12
23707,2165.711,50.28,908.91,6.112,19.483,7.756,-0.010,-0.280,0.030,0.125,-0.437,0.000,350.50,1.56,-96.75,1,,0,0,0,0,0,0,0,0,0,031.044397,-103.534973,1,12
23708,2166.206,50.29,908.92,5.981,19.448,7.756,0.020,-0.290,0.000,0.000,-0.250,0.000,350.56,1.56,-96.75,1,,0,0,0,0,0,0,0,0,0,031.044397,-103.534973,1,12
23709,2166.258,50.29,908.92,5.981,19.448,7.756,0.030,-0.280,0.050,0.000,-0.437,-0.187,350.56,1.56,-96.75,1,,0,0,0,0,0,0,0,0,0,031.044397,-103.534973,1,12
23710,2166.308,50.29,908.92,6.047,19.448,7.756,0.010,-0.330,0.050,0.000,-0.500,-0.062,350.56,1.56,-96.75,1,,0,0,0,0,0,0,0,0,0,031.044397,-103.534973,1,12
23711,2166.358,50.29,908.92,6.047,19.448,7.756,-0.010,-0.290,0.040,0.000,-0.375,-0.187,350.56,1.56,-96.75,1,,0,0,0,0,0,0,0,0,0,031.044397,-103.534973,1,12
23712,2166.408,50.28,908.90,6.179,19.448,7.756,-0.040,-0.280,0.030,0.187,0.125,-0.187,350.56,1.56,-96.75,1,,0,0,0,0,0,0,0,0,0,031.044397,-103.534973,1,12
23713,2166.464,50.28,908.90,6.179,19.448,7.756,-0.060,-0.310,0.030,0.000,0.187,0.187,350.56,1.56,-96.75,1,,0,0,0,0,0,0,0,0,0,031.044397,-103.534973,1,12
23714,2166.516,50.29,908.91,6.097,19.413,7.756,-0.040,-0.290,0.000,0.000,-0.062,0.125,350.56,1.56,-96.75,1,,0,0,0,0,0,0,0,0,0,031.044397,-103.534973,1,12
23715,2166.567,50.29,908.91,6.097,19.413,7.756,-0.060,-0.290,0.000,-0.062,0.125,0.125,350.56,1.56,-96.75,1,,0,0,0,0,0,0,0,0,0,031.044397,-103.534973,1,12
23716,2166.619,50.29,908.96,5.679,19.472,7.756,-0.020,-0.280,0.010,0.000,0.437,0.187,350.56,1.56,-96.75,1,,0,0,0,0,0,0,0,0,0,031.044397,-103.534973,1,12
23717,2166.669,50.29,908.96,5.679,19.472,7.756,0.010,-0.300,0.040,-0.187,0.937,0.000,350.56,1.56,-96.75,1,,0,0,0,0,0,0,0,0,0,031.044397,-103.534973,1,12
23718,2166.719,50.29,908.96,5.679,19.520,7.756,0.060,-0.290,0.030,-0.062,0.500,0.125,350.50,1.56,-96.75,1,,0,0,0,0,0,0,0,0,0,031.044397,-103.534973,1,12
23719,2167.184,50.29,908.94,5.864,19.448,7.756,-0.020,-0.290,0.010,0.062,0.750,0.000,350.56,1.56,-96.75,1,,0,0,0,0,0,0,0,0,0,031.044397,-103.534973,1,12
23720,2167.235,50.29,908.95,5.763,19.354,7.756,0.000,-0.290,0.020,0.125,0.625,0.125,350.50,1.56,-96.75,1,,0,0,0,0,0,0,0,0,0,031.044397,-103.534973,1,12
23721,2167.316,50.29,908.92,6.047,19.413,7.756,0.020,-0.290,0.000,-0.062,-0.375,0.000,350.50,1.56,-96.75,1,,0,0,0,0,0,0,0,0,0,031.044397,-103.534973,1,12
23722,2167.367,50.29,908.92,6.047,19.413,7.756,-0.010,-0.290,0.040,0.125,0.000,-0.062,350.50,1.56,-96.75,1,,0,0,0,0,0,0,0,0,0,031.044397,-103.534973,1,12
23723,2167.418,50.28,908.89,6.247,19.436,7.756,0.000,-0.270,0.040,0.000,0.375,0.125,350.50,1.56,-96.75,1,,0,0,0,0,0,0,0,0,0,031.044397,-103.534973,1,12
23724,2167.468,50.28,908.89,6.247,19.436,7.756,0.030,-0.290,0.050,0.000,0.437,0.000,350.50,1.56,-96.75,1,,0,0,0,0,0,0,0,0,0,031.044397,-103.534973,1,12
23725,2167.518,50.28,908.92,6.029,19.483,7.756,0.030,-0.270,0.040,0.187,0.187,-0.125,350.50,1.56,-96.75,1,,0,0,0,0,0,0,0,0,0,031.044397,-103.534973,1,12
23726,2167.569,50.28,908.92,6.029,19.483,7.756,0.020,-0.310,0.050,0.125,-0.312,-0.062,350.50,1.56,-96.75,1,,0,0,0,0,0,0,0,0,0,031.044397,-103.534973,1,12
23727,2167.619,50.28,908.83,6.814,19.400,7.756,0.000,-0.290,0.050,0.125,-1.000,-0.062,350.56,1.56,-96.75,1,,0,0,0,0,0,0,0,0,0,031.044397,-103.534973,1,12
23728,2167.669,50.28,908.83,6.814,19.400,7.756,0.000,-0.280,0.030,0.000,-0.750,-0.187,350.62,1.56,-96.75,1,,0,0,0,0,0,0,0,0,0,031.044397,-103.534973,1,12
23729,2167.723,50.28,908.86,6.547,19.483,7.756,-0.040,-0.290,0.030,0.125,-0.062,-0.187,350.62,1.56,-96.75,1,,0,0,0,0,0,0,0,0,0,031.044397,-103.534973,1,12
23730,2168.184,50.29,908.89,6.330,19.437,7.756,0.080,-0.290,0.050,0.062,0.062,0.000,350.50,1.56,-96.75,1,,0,0,0,0,0,0,0,0,0,031.044397,-103.534973,1,12
23731,2168.234,50.29,908.91,6.147,19.460,7.756,0.070,-0.290,0.060,0.187,0.000,0.000,350.50,1.56,-96.75,1,,0,0,0,0,0,0,0,0,0,031.044397,-103.534973,1,12
23732,2168.284,50.29,908.91,6.147,19.460,7.756,0.030,-0.280,0.070,0.125,-0.500,-0.187,350.50,1.56,-96.75,1,,0,0,0,0,0,0,0,0,0,031.044397,-103.534973,1,12
23733,2168.336,50.29,908.90,6.214,19.472,7.756,0.020,-0.290,0.030,0.125,-0.937,-0.250,350.50,1.56,-96.75,1,,0,0,0,0,0,0,0,0,0,031.044397,-103.534973,1,12
23734,2168.390,50.29,908.90,6.214,19.472,7.756,-0.020,-0.310,0.030,0.312,-1.062,-0.125,350.56,1.56,-96.75,1,,0,0,0,0,0,0,0,0,0,031.044397,-103.534973,1,12
23735,2168.442,50.29,908.91,6.097,19.389,7.756,-0.090,-0.280,0.010,0.250,-0.312,-0.187,350.62,1.56,-96.75,1,,0,0,0,0,0,0,0,0,0,031.044397,-103.534973,1,12
23736,2168.493,50.29,908.91,6.097,19.389,7.756,-0.100,-0.300,0.000,0.125,0.000,-0.062,350.62,1.56,-96.75,1,,0,0,0,0,0,0,0,0,0,031.044397,-103.534973,1,12
23737,2168.543,50.29,908.93,5.880,19.460,7.756,-0.080,-0.280,0.000,0.125,0.562,-0.062,350.62,1.56,-96.75,1,,0,0,0,0,0,0,0,0,0,031.044397,-103.534973,1,12
23738,2168.593,50.29,908.93,5.880,19.460,7.756,-0.040,-0.290,0.000,0.000,0.250,0.187,350.62,1.56,-96.75,1,,0,0,0,0,0,0,0,0,0,031.044397,-103.534973,1,12
23739,2168.648,50.29,908.95,5.732,19.495,7.756,-0.020,-0.330,-0.020,0.000,0.187,0.187,350.62,1.56,-96.75,1,,0,0,0,0,0,0,0,0,0,031.044397,-103.534973,1,12
23740,2168.701,50.29,908.91,6.114,19.448,7.756,0.000,-0.310,0.000,-0.062,0.437,0.250,350.62,1.56,-96.75,1,,0,0,0,0,0,0,0,0,0,031.044397,-103.534973,1,12
23741,2168.752,50.29,908.91,6.114,19.448,7.756,0.030,-0.300,0.020,-0.062,0.625,0.062,350.56,1.56,-96.75,1,,0,0,0,0,0,0,0,0,0,031.044397,-103.534973,1,12
23742,2169.246,50.29,908.93,5.897,19.400,7.756,-0.040,-0.290,-0.040,0.000,1.125,-0.062,350.56,1.56,-96.75,1,,0,0,0,0,0,0,0,0,0,031.044395,-103.534966,1,12
23743,2169.356,50.29,908.95,5.765,19.401,7.756,-0.010,-0.310,0.040,0.000,0.812,0.062,350.44,1.56,-96.75,1,,0,0,0,0,0,0,0,0,0,031.044395,-103.534966,1,12
23744,2169.409,50.30,908.95,5.733,19.401,7.756,-0.010,-0.290,0.070,0.062,0.687,0.062,350.44,1.56,-96.75,1,,0,0,0,0,0,0,0,0,0,031.044395,-103.534966,1,12
23745,2169.460,50.30,908.95,5.733,19.401,7.756,0.000,-0.310,0.050,-0.062,1.187,-0.125,350.37,1.56,-96.75,1,,0,0,0,0,0,0,0,0,0,031.044395,-103.534966,1,12
23746,2169.512,50.29,908.93,5.947,19.389,7.756,0.040,-0.280,0.070,0.062,1.187,-0.062,350.31,1.56,-96.75,1,,0,0,0,0,0,0,0,0,0,031.044395,-103.534966,1,12
23747,2169.562,50.29,908.93,5.947,19.389,7.756,0.060,-0.290,0.050,0.062,1.125,0.062,350.25,1.56,-96.75,1,,0,0,0,0,0,0,0,0,0,031.044395,-103.534966,1,12
23748,2169.612,50.29,908.92,5.982,19.365,7.756,0.050,-0.290,0.040,0.062,0.750,0.062,350.19,1.56,-96.75,1,,0,0,0,0,0,0,0,0,0,031.044395,-103.534966,1,12
23749,2169.663,50.29,908.92,5.982,19.365,7.756,0.030,-0.300,0.040,0.125,-0.375,-0.062,350.19,1.56,-96.75,1,,0,0,0,0,0,0,0,0,0,031.044395,-103.534966,1,12
23750,2169.713,50.29,908.95,5.714,19.389,7.756,0.040,-0.300,0.050,0.062,-0.687,-0.062,350.19,1.56,-96.75,1,,0,0,0,0,0,0,0,0,0,031.044395,-103.534966,1,12
23751,2169.763,50.29,908.95,5.714,19.389,7.756,-0.010,-0.290,0.020,0.187,-0.812,-0.062,350.25,1.56,-96.75,1,,0,0,0,0,0,0,0,0,0,031.044395,-103.534966,1,12
23752,2170.227,50.29,908.93,5.932,19.342,7.756,0.020,-0.290,0.060,0.062,0.375,0.000,350.31,1.56,-96.75,1,,0,0,0,0,0,0,0,0,0,031.044395,-103.534966,1,12
23753,2170.278,50.29,908.93,5.932,19.342,7.756,0.040,-0.300,0.010,0.062,0.437,0.000,350.31,1.56,-96.75,1,,0,0,0,0,0,0,0,0,0,031.044395,-103.534966,1,12
23754,2170.371,50.30,908.90,6.200,19.307,7.756,0.020,-0.270,0.080,0.000,-0.375,-0.125,350.31,1.56,-96.75,1,,0,0,0,0,0,0,0,0,0,031.044397,-103.534966,1,12
23755,2170.422,50.30,908.94,5.800,19.365,7.756,0.000,-0.310,0.050,0.125,-0.500,-0.125,350.31,1.56,-96.75,1,,0,0,0,0,0,0,0,0,0,031.044397,-103.534966,1,12
23756,2170.476,50.30,908.94,5.800,19.365,7.756,0.000,-0.290,0.060,0.125,-0.687,0.000,350.31,1.56,-96.75,1,,0,0,0,0,0,0,0,0,0,031.044397,-103.534966,1,12
23757,2170.527,50.29,908.92,6.048,19.365,7.756,-0.050,-0.290,0.070,0.125,-0.875,-0.062,350.37,1.56,-96.75,1,,0,0,0,0,0,0,0,0,0,031.044397,-103.534966,1,12
23758,2170.578,50.29,908.92,6.048,19.365,7.756,-0.070,-0.290,-0.010,0.187,-0.625,0.062,350.44,1.56,-96.75,1,,0,0,0,0,0,0,0,0,0,031.044397,-103.534966,1,12
23759,2170.629,50.29,908.93,5.932,19.365,7.756,-0.030,-0.280,0.020,0.125,-0.625,0.000,350.44,1.56,-96.75,1,,0,0,0,0,0,0,0,0,0,031.044397,-103.534966,1,12
23760,2170.680,50.29,908.93,5.932,19.365,7.756,-0.010,-0.300,0.020,0.000,-0.312,0.062,350.44,1.56,-96.75,1,,0,0,0,0,0,0,0,0,0,031.044397,-103.534966,1,12
23761,2170.730,50.29,908.90,6.181,19.342,7.756,-0.060,-0.310,0.010,0.062,0.187,0.000,350.44,1.56,-96.75,1,,0,0,0,0,0,0,0,0,0,031.044397,-103.534966,1,12
23762,2170.784,50.29,908.90,6.181,19.342,7.756,-0.050,-0.300,0.030,-0.062,0.500,0.062,350.44,1.56,-96.75,1,,0,0,0,0,0,0,0,0,0,031.044397,-103.534966,1,12
23763,2171.246,50.30,908.96,5.682,19.330,7.756,0.020,-0.320,0.020,0.000,-0.750,0.000,350.37,1.56,-96.75,1,,0,0,0,0,0,0,0,0,0,031.044397,-103.534966,1,12
23764,2171.296,50.30,908.96,6.016,19.318,7.756,0.000,-0.290,0.030,0.187,-1.187,0.000,350.44,1.56,-96.75,1,,0,0,0,0,0,0,0,0,0,031.044397,-103.534966,1,12
23765,2171.397,50.30,908.94,5.783,19.330,7.756,-0.050,-0.310,0.040,0.062,-0.312,-0.062,350.50,1.56,-96.75,1,,0,0,0,0,0,0,0,0,0,031.044397,-103.534966,1,12
23766,2171.454,50.30,908.94,5.783,19.330,7.756,-0.080,-0.310,0.030,0.062,0.000,-0.062,350.50,1.56,-96.75,1,,0,0,0,0,0,0,0,0,0,031.044397,-103.534966,1,12
23767,2171.505,50.29,908.92,6.014,19.342,7.756,-0.030,-0.280,0.020,0.187,0.500,-0.062,350.50,1.56,-96.75,1,,0,0,0,0,0,0,0,0,0,031.044397,-103.534966,1,12
23768,2171.556,50.29,908.92,6.014,19.342,7.756,-0.030,-0.300,0.010,0.125,0.562,0.125,350.50,1.56,-96.75,1,,0,0,0,0,0,0,0,0,0,031.044397,-103.534966,1,12
23769,2171.607,50.29,908.90,6.165,19.354,7.756,0.000,-0.290,0.040,0.000,0.312,0.125,350.50,1.56,-96.75,1,,0,0,0,0,0,0,0,0,0,031.044397,-103.534966,1,12
23770,2171.658,50.29,908.90,6.165,19.354,7.756,0.010,-0.290,0.040,0.000,0.750,0.187,350.50,1.56,-96.75,1,,0,0,0,0,0,0,0,0,0,031.044397,-103.534966,1,12
23771,2171.708,50.29,908.90,6.229,19.365,7.756,0.020,-0.310,0.010,0.062,0.562,0.062,350.44,1.56,-96.75,1,,0,0,0,0,0,0,0,0,0,031.044397,-103.534966,1,12
23772,2171.759,50.29,908.90,6.229,19.365,7.756,0.060,-0.280,0.030,0.062,0.875,0.000,350.37,1.56,-96.75,1,,0,0,0,0,0,0,0,0,0,031.044397,-103.534966,1,12
23773,2171.809,50.29,908.93,5.881,19.354,7.756,0.040,-0.310,0.040,0.125,1.000,-0.062,350.31,1.56,-96.75,1,,0,0,0,0,0,0,0,0,0,031.044397,-103.534966,1,12
23774,2172.304,50.30,908.97,5.566,19.378,7.756,-0.010,-0.290,0.040,0.062,0.937,0.125,350.56,1.56,-96.75,1,,0,0,0,0,0,0,0,0,0,031.044397,-103.534966,1,12
23775,2172.354,50.30,908.97,5.566,19.378,7.756,0.000,-0.280,0.000,-0.062,1.000,0.000,350.50,1.56,-96.75,1,,0,0,0,0,0,0,0,0,0,031.044397,-103.534966,1,12
23776,2172.405,50.29,908.95,5.698,19.365,7.756,0.000,-0.270,0.020,0.062,0.875,0.000,350.44,1.56,-96.75,1,,0,0,0,0,0,0,0,0,0,031.044397,-103.534966,1,12
23777,2172.455,50.29,908.95,5.698,19.365,7.756,0.010,-0.300,0.020,0.062,1.187,0.125,350.37,1.56,-96.75,1,,0,0,0,0,0,0,0,0,0,031.044397,-103.534966,1,12
23778,2172.505,50.29,908.94,5.816,19.365,7.756,0.000,-0.300,0.030,0.125,1.187,0.000,350.31,1.56,-96.75,1,,0,0,0,0,0,0,0,0,0,031.044397,-103.534966,1,12
23779,2172.556,50.29,908.94,5.816,19.365,7.756,0.030,-0.300,0.080,0.062,1.125,-0.125,350.25,1.56,-96.75,1,,0,0,0,0,0,0,0,0,0,031.044397,-103.534966,1,12
23780,2172.607,50.29,908.94,5.865,19.365,7.756,0.040,-0.280,0.050,0.125,1.000,0.000,350.19,1.56,-96.75,1,,0,0,0,0,0,0,0,0,0,031.044397,-103.534966,1,12
23781,2172.657,50.29,908.94,5.865,19.365,7.756,0.040,-0.280,0.060,0.062,0.562,-0.062,350.19,1.56,-96.75,1,,0,0,0,0,0,0,0,0,0,031.044397,-103.534966,1,12
23782,2172.709,50.29,908.95,5.698,19.365,7.756,0.050,-0.300,0.030,0.125,0.000,-0.125,350.19,1.56,-96.75,1,,0,0,0,0,0,0,0,0,0,031.044397,-103.534966,1,12
23783,2172.761,50.29,908.95,5.698,19.365,7.756,0.020,-0.310,0.050,0.125,-0.812,0.062,350.19,1.56,-96.75,1,,0,0,0,0,0,0,0,0,0,031.044397,-103.534966,1,12
23784,2172.812,50.29,908.95,5.732,19.365,7.756,0.020,-0.320,0.000,0.187,-0.875,-0.062,350.25,1.56,-96.75,1,,0,0,0,0,0,0,0,0,0,031.044397,-103.534966,1,12
23785,2173.274,50.30,908.97,5.566,19.378,7.756,0.040,-0.280,0.010,0.000,0.437,0.000,350.31,1.56,-96.75,1,,0,0,0,0,0,0,0,0,0,031.044397,-103.534966,1,12
23786,2173.328,50.30,908.97,5.516,19.378,7.756,0.030,-0.290,0.040,0.062,0.562,0.000,350.31,1.56,-96.75,1,,0,0,0,0,0,0,0,0,0,031.044397,-103.534966,1,12
23787,2173.411,50.30,908.95,5.733,19.520,7.756,0.020,-0.300,0.030,0.062,0.562,0.062,350.31,1.56,-96.75,1,,0,0,0,0,0,0,0,0,0,031.044397,-103.534966,1,12
23788,2173.462,50.30,908.95,5.733,19.520,7.756,0.010,-0.280,0.050,0.062,0.437,-0.062,350.31,1.56,-96.75,1,,0,0,0,0,0,0,0,0,0,031.044397,-103.534966,1,12
23789,2173.513,50.29,908.97,5.516,19.378,7.756,0.040,-0.300,0.030,0.187,0.437,0.000,350.31,1.56,-96.75,1,,0,0,0,0,0,0,0,0,0,031.044397,-103.534966,1,12
23790,2173.564,50.29,908.97,5.516,19.378,7.756,0.020,-0.300,0.060,0.125,-0.187,-0.062,350.31,1.56,-96.75,1,,0,0,0,0,0,0,0,0,0,031.044397,-103.534966,1,12
23791,2173.615,50.29,908.94,5.816,19.365,7.756,-0.010,-0.310,0.070,0.125,-0.625,-0.250,350.31,1.56,-96.75,1,,0,0,0,0,0,0,0,0,0,031.044397,-103.534966,1,12
23792,2173.728,50.29,908.96,5.665,19.377,7.756,0.000,-0.300,0.000,0.062,-0.812,0.000,350.44,1.56,-96.75,1,,0,0,0,0,0,0,0,0,0,031.044397,-103.534966,1,12
23793,2173.780,50.29,908.96,5.665,19.377,7.756,0.000,-0.280,0.030,0.187,-0.187,0.000,350.44,1.56,-96.75,1,,0,0,0,0,0,0,0,0,0,031.044397,-103.534966,1,12
23794,2173.830,50.29,908.98,5.481,19.330,7.756,0.000,-0.300,0.030,0.125,0.312,0.062,350.44,1.56,-96.75,1,,0,0,0,0,0,0,0,0,0,031.044397,-103.534966,1,12
23795,2174.292,50.29,908.98,5.431,19.390,7.756,0.070,-0.320,0.000,0.250,0.562,0.000,350.25,1.56,-96.75,1,,0,0,0,0,0,0,0,0,0,031.044397,-103.534966,1,12
23796,2174.347,50.30,908.97,5.550,19.365,7.756,0.040,-0.320,-0.010,0.062,0.000,0.000,350.25,1.56,-96.75,1,,0,0,0,0,0,0,0,0,0,031.044397,-103.534966,1,12
23797,2174.399,50.30,908.92,6.000,19.390,7.756,0.050,-0.290,0.000,-0.125,-1.000,-0.062,350.31,1.56,-96.75,1,,0,0,0,0,0,0,0,0,0,031.044397,-103.534966,1,12
23798,2174.449,50.30,908.92,6.000,19.390,7.756,0.000,-0.300,0.030,0.062,-1.187,-0.062,350.37,1.56,-96.75,1,,0,0,0,0,0,0,0,0,0,031.044397,-103.534966,1,12
23799,2174.501,50.29,908.96,5.682,19.390,7.756,0.010,-0.280,0.080,-0.062,-0.687,-0.062,350.44,1.56,-96.75,1,,0,0,0,0,0,0,0,0,0,031.044397,-103.534966,1,12
23800,2174.551,50.29,908.96,5.682,19.390,7.756,-0.030,-0.290,0.070,0.125,-0.062,0.000,350.44,1.56,-96.75,1,,0,0,0,0,0,0,0,0,0,031.044397,-103.534966,1,12
23801,2174.601,50.29,908.99,5.398,19.389,7.756,-0.030,-0.290,0.100,0.062,0.562,0.000,350.44,1.56,-96.75,1,,0,0,0,0,0,0,0,0,0,031.044397,-103.534966,1,12
23802,2174.652,50.29,908.99,5.398,19.389,7.756,-0.010,-0.290,0.060,0.187,0.562,-0.062,350.44,1.56,-96.75,1,,0,0,0,0,0,0,0,0,0,031.044397,-103.534966,1,12
23803,2174.702,50.29,908.95,5.747,19.389,7.756,0.030,-0.300,0.040,0.187,0.562,0.062,350.44,1.56,-96.75,1,,0,0,0,0,0,0,0,0,0,031.044397,-103.534966,1,12
23804,2174.752,50.29,908.95,5.747,19.389,7.756,0.030,-0.290,0.010,0.312,0.125,-0.125,350.44,1.56,-96.75,1,,0,0,0,0,0,0,0,0,0,031.044397,-103.534966,1,12
23805,2174.802,50.29,908.95,5.716,19.378,7.756,0.050,-0.320,-0.010,0.125,-0.125,0.125,350.44,1.56,-96.75,1,,0,0,0,0,0,0,0,0,0,031.044397,-103.534966,1,12
23806,2174.854,50.29,908.95,5.716,19.378,7.756,0.080,-0.300,-0.010,0.125,-0.250,-0.125,350.44,1.56,-96.75,1,,0,0,0,0,0,0,0,0,0,031.044397,-103.534966,1,12
23807,2175.347,50.30,908.96,5.649,19.390,7.756,0.040,-0.300,-0.080,0.000,-0.187,0.187,350.56,1.56,-96.75,1,,0,0,0,0,0,0,0,0,0,031.044397,-103.534966,1,12
23808,2175.397,50.29,908.98,5.532,19.437,7.756,0.050,-0.280,-0.030,0.062,0.500,0.187,350.56,1.56,-96.75,1,,0,0,0,0,0,0,0,0,0,031.044397,-103.534966,1,12
23809,2175.449,50.29,908.97,5.532,19.437,7.756,0.060,-0.270,-0.050,-0.125,0.875,-0.062,350.50,1.56,-96.75,1,,0,0,0,0,0,0,0,0,0,031.044397,-103.534966,1,12
23810,2175.499,50.30,908.99,5.366,19.390,7.756,0.050,-0.300,0.060,-0.312,0.812,-0.062,350.44,1.56,-96.75,1,,0,0,0,0,0,0,0,0,0,031.044397,-103.534966,1,12
23811,2175.549,50.30,908.99,5.366,19.390,7.756,0.010,-0.290,0.080,0.000,0.750,-0.187,350.37,1.56,-96.75,1,,0,0,0,0,0,0,0,0,0,031.044397,-103.534966,1,12
23812,2175.601,50.30,908.96,5.682,19.413,7.756,-0.060,-0.310,0.160,0.000,0.625,-0.062,350.37,1.56,-96.75,1,,0,0,0,0,0,0,0,0,0,031.044397,-103.534966,1,12
23813,2175.651,50.30,908.96,5.682,19.413,7.756,-0.080,-0.300,0.160,-0.062,0.000,0.000,350.37,1.56,-96.75,1,,0,0,0,0,0,0,0,0,0,031.044397,-103.534966,1,12
23814,2175.702,50.29,908.95,5.716,19.413,7.756,-0.040,-0.280,0.130,0.250,-0.312,-0.062,350.37,1.56,-96.75,1,,0,0,0,0,0,0,0,0,0,031.044397,-103.534966,1,12
23815,2175.754,50.29,908.95,5.716,19.413,7.756,-0.010,-0.300,0.090,0.437,-1.125,0.062,350.44,1.56,-96.75,1,,0,0,0,0,0,0,0,0,0,031.044397,-103.534966,1,12
23816,2175.806,50.29,908.95,5.747,19.413,7.756,0.000,-0.330,-0.040,0.250,-0.875,0.062,350.50,1.56,-96.75,1,,0,0,0,0,0,0,0,0,0,031.044397,-103.534966,1,12
23817,2175.856,50.29,908.95,5.747,19.413,7.756,0.000,-0.320,-0.060,0.250,-0.812,0.125,350.50,1.56,-96.75,1,,0,0,0,0,0,0,0,0,0,031.044397,-103.534966,1,12
23818,2176.317,50.30,908.96,5.617,19.401,7.756,0.030,-0.300,0.030,0.250,-0.312,0.187,350.44,1.56,-96.75,1,,0,0,0,0,0,0,0,0,0,031.044397,-103.534966,1,12
23819,2176.373,50.30,908.96,5.617,19.401,7.756,0.060,-0.310,-0.020,0.187,-0.562,-0.125,350.44,1.56,-96.75,1,,0,0,0,0,0,0,0,0,0,031.044397,-103.534966,1,12
23820,2176.456,50.29,908.95,5.747,19.460,7.756,0.050,-0.310,0.000,0.000,-0.562,-0.062,350.44,1.56,-96.75,1,,0,0,0,0,0,0,0,0,0,031.044397,-103.534966,1,12
23821,2176.506,50.29,908.93,5.915,19.401,7.756,0.030,-0.300,0.010,-0.062,-0.250,-0.125,350.44,1.56,-96.75,1,,0,0,0,0,0,0,0,0,0,031.044397,-103.534966,1,12
23822,2176.559,50.29,908.93,5.915,19.401,7.756,0.000,-0.280,0.050,-0.062,-0.125,-0.125,350.44,1.56,-96.75,1,,0,0,0,0,0,0,0,0,0,031.044397,-103.534966,1,12
23823,2176.612,50.30,908.96,5.599,19.401,7.756,-0.030,-0.270,0.090,-0.062,-0.062,-0.062,350.44,1.56,-96.75,1,,0,0,0,0,0,0,0,0,0,031.044397,-103.534966,1,12
23824,2176.663,50.30,908.96,5.599,19.401,7.756,-0.020,-0.280,0.130,0.000,-0.062,-0.125,350.44,1.56,-96.75,1,,0,0,0,0,0,0,0,0,0,031.044397,-103.534966,1,12
23825,2176.714,50.30,908.96,5.600,19.401,7.756,-0.060,-0.290,0.110,0.125,-0.375,0.062,350.44,1.56,-96.75,1,,0,0,0,0,0,0,0,0,0,031.044397,-103.534966,1,12
23826,2176.765,50.30,908.96,5.600,19.401,7.756,-0.020,-0.300,0.050,0.187,-0.437,0.062,350.44,1.56,-96.75,1,,0,0,0,0,0,0,0,0,0,031.044397,-103.534966,1,12
23827,2176.815,50.30,908.96,5.633,19.413,7.756,-0.020,-0.320,0.040,0.250,-0.375,0.187,350.44,1.56,-96.75,1,,0,0,0,0,0,0,0,0,0,031.044397,-103.534966,1,12
23828,2176.920,50.26,908.89,6.293,19.399,7.756,0.010,-0.310,-0.040,-0.125,0.125,0.000,350.44,1.56,-96.75,1,,0,0,0,0,0,0,0,0,0,031.044397,-103.534966,1,12
23829,2177.382,50.30,908.97,5.584,19.390,7.756,0.010,-0.290,0.000,0.000,0.250,0.000,350.37,1.56,-96.75,1,,0,0,0,0,0,0,0,0,0,031.044397,-103.534966,1,12
23830,2177.432,50.30,908.97,5.550,19.401,7.756,0.000,-0.280,0.000,0.125,0.062,0.000,350.37,1.56,-96.75,1,,0,0,0,0,0,0,0,0,0,031.044397,-103.534966,1,12
23831,2177.482,50.30,908.97,5.550,19.401,7.756,0.010,-0.310,-0.010,-0.125,0.250,0.125,350.37,1.56,-96.75,1,,0,0,0,0,0,0,0,0,0,031.044397,-103.534966,1,12
23832,2177.533,50.30,909.01,5.217,19.354,7.756,0.010,-0.310,-0.020,-0.250,0.250,0.062,350.37,1.56,-96.75,1,,0,0,0,0,0,0,0,0,0,031.044397,-103.534966,1,12
23833,2177.584,50.30,909.01,5.217,19.354,7.756,0.010,-0.280,0.020,-0.125,0.187,0.062,350.37,1.56,-96.75,1,,0,0,0,0,0,0,0,0,0,031.044397,-103.534966,1,12
23834,2177.635,50.30,908.97,5.566,19.413,7.756,0.000,-0.300,0.070,-0.187,0.437,-0.062,350.37,1.56,-96.75,1,,0,0,0,0,0,0,0,0,0,031.044397,-103.534966,1,12
23835,2177.689,50.30,908.97,5.566,19.413,7.756,0.000,-0.290,0.080,-0.125,0.437,0.062,350.37,1.56,-96.75,1,,0,0,0,0,0,0,0,0,0,031.044397,-103.534966,1,12
23836,2177.741,50.30,908.94,5.833,19.401,7.756,-0.020,-0.280,0.060,-0.062,0.500,0.000,350.37,1.56,-96.75,1,,0,0,0,0,0,0,0,0,0,031.044397,-103.534966,1,12
23837,2177.791,50.30,908.94,5.833,19.401,7.756,0.000,-0.290,0.090,0.062,0.312,0.062,350.37,1.56,-96.75,1,,0,0,0,0,0,0,0,0,0,031.044397,-103.534966,1,12
23838,2177.841,50.30,908.97,5.584,19.365,7.756,0.010,-0.310,0.070,0.000,0.125,0.062,350.37,1.56,-96.75,1,,0,0,0,0,0,0,0,0,0,031.044397,-103.534966,1,12
23839,2177.893,50.30,908.97,5.584,19.365,7.756,0.030,-0.290,0.010,0.062,-0.062,0.125,350.37,1.56,-96.75,1,,0,0,0,0,0,0,0,0,0,031.044397,-103.534966,1,12
23840,2178.032,50.23,908.85,6.622,19.398,7.756,0.010,-0.320,0.000,0.062,-0.312,0.062,350.37,1.56,-96.75,1,,0,0,0,0,0,0,0,0,0,031.044397,-103.534966,1,12
23841,2178.494,50.29,908.99,5.382,19.390,7.756,0.040,-0.290,0.030,-0.062,-0.062,-0.062,350.37,1.56,-96.75,1,,0,0,0,0,0,0,0,0,0,031.044397,-103.534966,1,12
23842,2178.546,50.30,908.99,5.383,19.448,7.756,0.040,-0.310,0.030,0.062,-0.125,-0.187,350.37,1.56,-96.75,1,,0,0,0,0,0,0,0,0,0,031.044397,-103.534966,1,12
23843,2178.598,50.30,908.99,5.383,19.413,7.756,0.070,-0.300,0.030,0.000,-0.437,-0.062,350.37,1.56,-96.75,1,,0,0,0,0,0,0,0,0,0,031.044397,-103.534966,1,12
23844,2178.649,50.30,908.99,5.383,19.413,7.756,0.010,-0.310,0.020,-0.125,-0.562,0.187,350.37,1.56,-96.75,1,,0,0,0,0,0,0,0,0,0,031.044397,-103.534966,1,12
23845,2178.705,50.29,908.99,5.398,19.390,7.756,0.010,-0.320,0.070,0.000,-0.312,0.000,350.37,1.56,-96.75,1,,0,0,0,0,0,0,0,0,0,031.044397,-103.534966,1,12
23846,2178.757,50.29,908.99,5.398,19.390,7.756,-0.010,-0.290,0.080,-0.062,-0.375,0.000,350.37,1.56,-96.75,1,,0,0,0,0,0,0,0,0,0,031.044397,-103.534966,1,12
23847,2178.808,50.30,908.95,5.767,19.401,7.756,0.010,-0.280,0.070,0.000,-0.375,0.062,350.37,1.56,-96.75,1,,0,0,0,0,0,0,0,0,0,031.044397,-103.534966,1,12
23848,2178.859,50.30,908.95,5.767,19.401,7.756,-0.020,-0.280,0.040,0.187,-0.250,-0.125,350.37,1.56,-96.75,1,,0,0,0,0,0,0,0,0,0,031.044397,-103.534966,1,12
23849,2178.910,50.26,908.90,6.242,19.399,7.756,-0.010,-0.300,0.040,0.125,0.062,0.062,350.37,1.56,-96.75,1,,0,0,0,0,0,0,0,0,0,031.044397,-103.534966,1,12
23850,2178.961,50.26,908.90,6.242,19.399,7.756,-0.010,-0.300,0.040,0.062,0.125,0.062,350.37,1.56,-96.75,1,,0,0,0,0,0,0,0,0,0,031.044397,-103.534966,1,12
23851,2179.012,50.24,908.87,6.472,19.398,7.756,0.000,-0.300,0.010,0.062,0.062,0.062,350.37,1.56,-96.75,1,,0,0,0,0,0,0,0,0,0,031.044397,-103.534966,1,12
23852,2179.066,50.24,908.87,6.472,19.398,7.756,0.020,-0.300,0.030,0.000,0.250,0.000,350.37,1.56,-96.75,1,,0,0,0,0,0,0,0,0,0,031.044397,-103.534966,1,12
23853,2179.528,50.30,908.95,5.733,19.401,7.756,0.010,-0.260,0.020,0.062,-0.625,0.000,350.44,1.56,-96.75,1,,0,0,0,0,0,0,0,0,0,031.044397,-103.534966,1,12
23854,2179.611,50.29,908.96,5.631,19.484,7.756,-0.010,-0.310,0.040,0.000,-0.250,-0.062,350.44,1.56,-96.75,1,,0,0,0,0,0,0,0,0,0,031.044397,-103.534966,1,12
23855,2179.665,50.29,908.96,5.631,19.484,7.756,-0.020,-0.300,0.040,0.000,-0.062,-0.062,350.44,1.56,-96.75,1,,0,0,0,0,0,0,0,0,0,031.044397,-103.534966,1,12
23856,2179.716,50.30,908.97,5.533,19.437,7.756,-0.010,-0.300,0.030,-0.062,0.187,0.000,350.44,1.56,-96.75,1,,0,0,0,0,0,0,0,0,0,031.044397,-103.534966,1,12
23857,2179.766,50.30,908.97,5.533,19.437,7.756,0.000,-0.310,0.030,0.000,0.437,0.062,350.44,1.56,-96.75,1,,0,0,0,0,0,0,0,0,0,031.044397,-103.534966,1,12
23858,2179.816,50.29,908.97,5.582,19.401,7.756,-0.010,-0.300,0.020,-0.125,-0.062,0.062,350.44,1.56,-96.75,1,,0,0,0,0,0,0,0,0,0,031.044397,-103.534966,1,12
23859,2179.867,50.29,908.97,5.582,19.401,7.756,0.030,-0.310,-0.010,0.062,0.250,0.000,350.44,1.56,-96.75,1,,0,0,0,0,0,0,0,0,0,031.044397,-103.534966,1,12
23860,2179.918,50.26,908.90,6.242,19.423,7.756,0.010,-0.300,0.000,-0.062,0.250,0.062,350.44,1.56,-96.75,1,,0,0,0,0,0,0,0,0,0,031.044397,-103.534966,1,12
23861,2179.968,50.26,908.90,6.242,19.423,7.756,0.020,-0.290,0.040,-0.062,0.125,0.000,350.44,1.56,-96.75,1,,0,0,0,0,0,0,0,0,0,031.044397,-103.534966,1,12
23862,2180.021,50.24,908.84,6.723,19.398,7.756,0.000,-0.280,0.050,-0.062,0.187,0.000,350.44,1.56,-96.75,1,,0,0,0,0,0,0,0,0,0,031.044397,-103.534966,1,12
23863,2180.074,50.24,908.84,6.723,19.398,7.756,0.020,-0.310,0.060,-0.062,0.437,-0.062,350.44,1.56,-96.75,1,,0,0,0,0,0,0,0,0,0,031.044397,-103.534966,1,12
23864,2180.535,50.30,908.97,5.516,19.413,7.756,0.000,-0.280,0.030,0.062,-0.187,0.000,350.62,1.50,-96.75,1,,0,0,0,0,0,0,0,0,0,031.044397,-103.534966,1,12
23865,2180.587,50.30,908.97,5.516,19.413,7.756,0.000,-0.300,0.090,0.125,0.187,-0.187,350.62,1.50,-96.75,1,,0,0,0,0,0,0,0,0,0,031.044397,-103.534966,1,12
23866,2180.637,50.30,908.95,5.734,19.378,7.756,0.000,-0.290,0.080,0.187,-0.125,-0.125,350.62,1.50,-96.75,1,,0,0,0,0,0,0,0,0,0,031.044397,-103.534966,1,12
23867,2180.687,50.30,908.95,5.734,19.378,7.756,-0.050,-0.300,0.070,0.062,-0.187,0.062,350.62,1.50,-96.75,1,,0,0,0,0,0,0,0,0,0,031.044397,-103.534966,1,12
23868,2180.737,50.29,908.98,5.482,19.413,7.756,0.000,-0.290,0.040,0.062,-0.125,0.187,350.62,1.50,-96.75,1,,0,0,0,0,0,0,0,0,0,031.044397,-103.534966,1,12
23869,2180.789,50.29,908.98,5.482,19.413,7.756,0.020,-0.290,0.030,-0.062,-0.125,0.187,350.62,1.50,-96.75,1,,0,0,0,0,0,0,0,0,0,031.044397,-103.534966,1,12
23870,2180.839,50.30,908.98,5.415,19.354,7.756,0.040,-0.270,0.040,0.125,-0.125,0.000,350.62,1.50,-96.75,1,,0,0,0,0,0,0,0,0,0,031.044397,-103.534966,1,12
23871,2180.891,50.30,908.98,5.415,19.354,7.756,0.000,-0.300,-0.030,0.125,0.000,0.062,350.62,1.50,-96.75,1,,0,0,0,0,0,0,0,0,0,031.044397,-103.534966,1,12
23872,2180.944,50.26,908.91,6.108,19.458,7.756,0.010,-0.290,0.000,0.125,0.062,0.000,350.62,1.50,-96.75,1,,0,0,0,0,0,0,0,0,0,031.044397,-103.534966,1,12
23873,2180.994,50.26,908.91,6.108,19.399,7.756,0.040,-0.310,0.030,0.000,-0.125,-0.125,350.62,1.50,-96.75,1,,0,0,0,0,0,0,0,0,0,031.044397,-103.534966,1,12
23874,2181.044,50.24,908.87,6.488,19.398,7.756,-0.020,-0.290,0.090,-0.062,-0.187,-0.062,350.62,1.50,-96.75,1,,0,0,0,0,0,0,0,0,0,031.044397,-103.534966,1,12
23875,2181.131,50.30,908.97,5.516,19.425,7.756,-0.020,-0.290,0.100,0.000,-0.187,-0.125,350.62,1.50,-96.75,1,,0,0,0,0,0,0,0,0,0,031.044397,-103.534966,1,12
23876,2181.592,50.30,908.96,5.616,19.425,7.756,0.010,-0.280,0.050,-0.125,-0.375,0.000,350.62,1.50,-96.75,1,,0,0,0,0,0,0,0,0,0,031.044397,-103.534966,1,12
23877,2181.642,50.30,908.97,5.533,19.390,7.756,0.000,-0.280,0.090,0.000,-0.062,-0.062,350.62,1.50,-96.75,1,,0,0,0,0,0,0,0,0,0,031.044397,-103.534966,1,12
23878,2181.695,50.30,908.97,5.533,19.401,7.756,-0.010,-0.290,0.120,-0.125,0.062,0.000,350.62,1.50,-96.75,1,,0,0,0,0,0,0,0,0,0,031.044397,-103.534966,1,12
23879,2181.747,50.30,908.96,5.667,19.401,7.756,0.000,-0.290,0.130,0.187,0.062,0.187,350.62,1.50,-96.75,1,,0,0,0,0,0,0,0,0,0,031.044397,-103.534966,1,12
23880,2181.800,50.29,908.93,5.915,19.425,7.756,-0.020,-0.280,0.090,0.312,0.125,0.187,350.62,1.50,-96.75,1,,0,0,0,0,0,0,0,0,0,031.044397,-103.534966,1,12
23881,2181.851,50.29,908.93,5.915,19.425,7.756,0.010,-0.270,0.060,0.187,0.250,0.187,350.62,1.50,-96.75,1,,0,0,0,0,0,0,0,0,0,031.044397,-103.534966,1,12
23882,2181.902,50.26,908.91,6.142,19.435,7.756,0.030,-0.310,0.000,0.312,0.062,0.125,350.62,1.50,-96.75,1,,0,0,0,0,0,0,0,0,0,031.044397,-103.534966,1,12
23883,2181.952,50.26,908.91,6.142,19.435,7.756,0.080,-0.290,-0.040,0.375,0.125,0.062,350.62,1.50,-96.75,1,,0,0,0,0,0,0,0,0,0,031.044397,-103.534966,1,12
23884,2182.002,50.24,908.89,6.257,19.435,7.756,0.080,-0.280,-0.020,0.187,0.000,0.187,350.62,1.50,-96.75,1,,0,0,0,0,0,0,0,0,0,031.044397,-103.534966,1,12
23885,2182.054,50.24,908.89,6.257,19.435,7.756,0.070,-0.300,-0.020,0.000,-0.062,-0.062,350.62,1.50,-96.75,1,,0,0,0,0,0,0,0,0,0,031.044397,-103.534966,1,12
23886,2182.107,50.30,908.96,5.665,19.425,7.756,0.020,-0.290,0.040,-0.125,-0.062,-0.125,350.62,1.50,-96.75,1,,0,0,0,0,0,0,0,0,0,031.044397,-103.534966,1,12
23887,2182.159,50.30,908.96,5.665,19.425,7.756,0.000,-0.300,0.030,-0.187,0.062,-0.125,350.62,1.50,-96.75,1,,0,0,0,0,0,0,0,0,0,031.044397,-103.534966,1,12
23888,2182.679,50.30,908.99,5.400,19.425,7.756,0.030,-0.300,0.040,-0.062,0.125,-0.125,350.62,1.50,-96.75,1,,0,0,0,0,0,0,0,0,0,031.044397,-103.534966,1,12
23889,2182.763,50.30,908.97,5.566,19.473,7.756,0.000,-0.290,0.070,0.000,-0.437,-0.062,350.62,1.50,-96.75,1,,0,0,0,0,0,0,0,0,0,031.044397,-103.534966,1,11
23890,2182.817,50.30,908.99,5.398,19.413,7.756,-0.020,-0.300,0.100,0.000,-0.437,-0.062,350.69,1.50,-96.75,1,,0,0,0,0,0,0,0,0,0,031.044397,-103.534966,1,11
23891,2182.917,50.27,908.92,5.978,19.436,7.756,-0.010,-0.300,0.090,0.250,-0.062,0.125,350.69,1.50,-96.75,1,,0,0,0,0,0,0,0,0,0,031.044397,-103.534966,1,11
23892,2182.969,50.27,908.92,5.978,19.436,7.756,0.020,-0.290,0.020,0.125,0.250,0.000,350.69,1.50,-96.75,1,,0,0,0,0,0,0,0,0,0,031.044397,-103.534966,1,11
23893,2183.019,50.24,908.88,6.371,19.446,7.756,0.020,-0.300,0.030,0.187,0.125,-0.062,350.69,1.50,-96.75,1,,0,0,0,0,0,0,0,0,0,031.044397,-103.534966,1,11
23894,2183.069,50.24,908.88,6.371,19.446,7.756,0.060,-0.300,-0.040,0.062,-0.125,0.062,350.69,1.50,-96.75,1,,0,0,0,0,0,0,0,0,0,031.044397,-103.534966,1,11
23895,2183.121,50.30,909.01,5.217,19.354,7.756,0.050,-0.320,-0.020,0.000,-0.312,0.062,350.69,1.50,-96.75,1,,0,0,0,0,0,0,0,0,0,031.044397,-103.534966,1,11
23896,2183.173,50.30,909.01,5.217,19.354,7.756,0.040,-0.300,0.000,-0.187,-0.125,0.062,350.69,1.50,-96.75,1,,0,0,0,0,0,0,0,0,0,031.044397,-103.534966,1,11
23897,2183.636,50.30,908.99,5.332,19.425,7.756,0.020,-0.330,0.000,0.250,-0.437,-0.125,350.69,1.50,-96.75,1,,0,0,0,0,0,0,0,0,0,031.044397,-103.534966,1,11
23898,2183.690,50.30,908.99,5.332,19.425,7.756,0.040,-0.310,0.000,-0.062,-0.500,0.000,350.69,1.50,-96.75,1,,0,0,0,0,0,0,0,0,0,031.044397,-103.534966,1,11
23899,2183.742,50.30,908.96,5.649,19.460,7.756,0.020,-0.290,0.000,0.000,-0.562,-0.062,350.69,1.50,-96.75,1,,0,0,0,0,0,0,0,0,0,031.044397,-103.534966,1,11
23900,2183.795,50.30,908.96,5.649,19.390,7.756,0.010,-0.280,0.010,-0.062,-0.750,-0.062,350.75,1.50,-96.75,1,,0,0,0,0,0,0,0,0,0,031.044397,-103.534966,1,11
23901,2183.846,50.30,908.97,5.550,19.390,7.756,-0.010,-0.280,0.080,-0.125,-0.250,-0.125,350.75,1.50,-96.75,1,,0,0,0,0,0,0,0,0,0,031.044397,-103.534966,1,11
23902,2183.897,50.26,908.96,6.158,19.482,7.756,-0.010,-0.290,0.060,-0.062,-0.125,0.000,350.75,1.50,-96.75,1,,0,0,0,0,0,0,0,0,0,031.044397,-103.534966,1,11
23903,2183.948,50.26,908.90,6.158,19.482,7.756,-0.020,-0.270,0.080,0.000,0.187,0.062,350.75,1.50,-96.75,1,,0,0,0,0,0,0,0,0,0,031.044397,-103.534966,1,11
23904,2183.998,50.24,908.91,6.107,19.423,7.756,-0.020,-0.300,0.050,0.187,0.375,0.062,350.75,1.50,-96.75,1,,0,0,0,0,0,0,0,0,0,031.044397,-103.534966,1,11
23905,2184.051,50.24,908.91,6.107,19.423,7.756,0.000,-0.280,0.060,0.000,0.000,0.125,350.75,1.50,-96.75,1,,0,0,0,0,0,0,0,0,0,031.044397,-103.534966,1,11
23906,2184.104,50.30,908.94,5.817,19.413,7.756,0.050,-0.320,0.000,0.125,-0.125,0.000,350.75,1.50,-96.75,1,,0,0,0,0,0,0,0,0,0,031.044397,-103.534966,1,11
23907,2184.155,50.30,908.94,5.817,19.413,7.756,0.050,-0.290,0.000,0.062,0.000,0.000,350.75,1.50,-96.75,1,,0,0,0,0,0,0,0,0,0,031.044397,-103.534966,1,11
23908,2184.207,50.30,908.96,5.684,19.413,7.756,0.070,-0.300,0.000,0.062,-0.312,0.000,350.75,1.50,-96.75,1,,0,0,0,0,0,0,0,0,0,031.044397,-103.534966,1,11
23909,2184.703,50.30,908.93,5.917,19.425,7.756,0.080,-0.320,0.020,0.187,-0.187,0.000,350.75,1.50,-96.75,1,,0,0,0,0,0,0,0,0,0,031.044397,-103.534966,1,12
23910,2184.754,50.30,908.93,5.917,19.425,7.756,0.080,-0.280,0.030,0.125,-0.687,-0.250,350.81,1.50,-96.75,1,,0,0,0,0,0,0,0,0,0,031.044397,-103.534966,1,12
23911,2184.804,50.30,908.93,5.915,19.413,7.756,0.040,-0.290,0.030,-0.062,-1.125,-0.125,350.87,1.50,-96.75,1,,0,0,0,0,0,0,0,0,0,031.044397,-103.534966,1,12
23912,2184.856,50.30,908.93,5.915,19.413,7.756,0.030,-0.270,-0.010,-0.062,-1.687,-0.187,350.94,1.50,-96.75,1,,0,0,0,0,0,0,0,0,0,031.044397,-103.534966,1,12
23913,2184.906,50.25,908.86,6.542,19.411,7.756,0.010,-0.300,0.000,0.062,-1.187,0.000,351.00,1.50,-96.75,1,,0,0,0,0,0,0,0,0,0,031.044397,-103.534966,1,12
23914,2184.956,50.25,908.86,6.542,19.411,7.756,-0.040,-0.290,0.070,0.187,-0.750,-0.125,351.06,1.50,-96.75,1,,0,0,0,0,0,0,0,0,0,031.044397,-103.534966,1,12
23915,2185.009,50.24,908.85,6.673,19.423,7.756,-0.020,-0.300,0.110,0.187,-0.437,-0.187,351.06,1.50,-96.75,1,,0,0,0,0,0,0,0,0,0,031.044397,-103.534966,1,12
23916,2185.062,50.24,908.85,6.673,19.423,7.756,-0.010,-0.290,0.090,0.125,-0.375,-0.125,351.06,1.50,-96.75,1,,0,0,0,0,0,0,0,0,0,031.044397,-103.534966,1,12
23917,2185.113,50.30,908.94,5.849,19.390,7.756,-0.040,-0.280,0.030,0.125,-0.812,0.000,351.12,1.50,-96.75,1,,0,0,0,0,0,0,0,0,0,031.044397,-103.534966,1,12
23918,2185.165,50.30,908.94,5.849,19.390,7.756,-0.010,-0.300,0.020,0.250,-1.187,0.125,351.19,1.50,-96.75,1,,0,0,0,0,0,0,0,0,0,031.044397,-103.534966,1,12
23919,2185.215,50.29,908.93,5.898,19.378,7.756,0.030,-0.300,-0.080,0.187,-0.875,0.187,351.25,1.44,-96.75,1,,0,0,0,0,0,0,0,0,0,031.044397,-103.534966,1,12
23920,2185.676,50.30,908.94,5.784,19.401,7.756,0.040,-0.310,0.090,0.312,-0.437,0.062,351.31,1.44,-96.75,1,,0,0,0,0,0,0,0,0,0,031.044397,-103.534966,1,12
23921,2185.728,50.29,908.93,5.932,19.401,7.756,0.010,-0.290,0.000,0.312,-0.562,0.000,351.31,1.44,-96.75,1,,0,0,0,0,0,0,0,0,0,031.044397,-103.534966,1,12
23922,2185.811,50.30,908.91,6.100,19.365,7.756,0.090,-0.320,-0.100,0.187,-0.625,-0.187,351.31,1.44,-96.75,1,,0,0,0,0,0,0,0,0,0,031.044397,-103.534966,1,11
23923,2185.862,50.30,908.91,6.100,19.365,7.756,0.030,-0.280,-0.040,0.062,-1.062,-0.187,351.37,1.44,-96.75,1,,0,0,0,0,0,0,0,0,0,031.044397,-103.534966,1,11
23924,2185.912,50.26,908.88,6.410,19.411,7.756,0.000,-0.310,0.000,0.125,-1.250,-0.250,351.44,1.44,-96.75,1,,0,0,0,0,0,0,0,0,0,031.044397,-103.534966,1,11
23925,2185.968,50.26,908.88,6.410,19.411,7.756,-0.020,-0.280,0.100,-0.062,-1.375,0.000,351.50,1.44,-96.75,1,,0,0,0,0,0,0,0,0,0,031.044397,-103.534966,1,11
23926,2186.020,50.24,908.82,6.907,19.411,7.756,-0.060,-0.300,0.110,0.062,-1.125,-0.062,351.56,1.44,-96.75,1,,0,0,0,0,0,0,0,0,0,031.044397,-103.534966,1,11
23927,2186.071,50.24,908.82,6.907,19.411,7.756,-0.080,-0.320,0.130,0.125,-0.687,-0.062,351.62,1.44,-96.75,1,,0,0,0,0,0,0,0,0,0,031.044397,-103.534966,1,11
23928,2186.123,50.30,908.92,6.016,19.460,7.756,-0.050,-0.300,0.060,0.062,-0.125,0.062,351.69,1.44,-96.75,1,,0,0,0,0,0,0,0,0,0,031.044397,-103.534966,1,11
23929,2186.173,50.30,908.92,6.016,19.460,7.756,-0.030,-0.310,0.050,0.187,0.250,0.125,351.69,1.44,-96.75,1,,0,0,0,0,0,0,0,0,0,031.044397,-103.534966,1,11
23930,2186.223,50.30,908.89,6.283,19.354,7.756,0.050,-0.310,0.010,0.250,0.250,0.000,351.69,1.44,-96.75,1,,0,0,0,0,0,0,0,0,0,031.044397,-103.534966,1,11
23931,2186.688,50.30,908.85,6.699,19.401,7.756,0.000,-0.290,0.000,0.125,-0.625,0.000,351.75,1.44,-96.75,1,,0,0,0,0,0,0,0,0,0,031.044397,-103.534966,1,11
23932,2186.740,50.30,908.88,6.351,19.413,7.756,0.000,-0.280,0.020,0.187,-0.312,0.125,351.75,1.44,-96.75,1,,0,0,0,0,0,0,0,0,0,031.044397,-103.534966,1,11
23933,2186.790,50.30,908.88,6.351,19.413,7.756,0.040,-0.300,0.010,0.187,0.250,-0.187,351.75,1.44,-96.75,1,,0,0,0,0,0,0,0,0,0,031.044397,-103.534966,1,11
23934,2186.840,50.30,908.90,6.166,19.437,7.756,0.000,-0.270,0.000,-0.125,-0.062,0.062,351.75,1.44,-96.75,1,,0,0,0,0,0,0,0,0,0,031.044397,-103.534966,1,11
23935,2186.891,50.30,908.90,6.166,19.437,7.756,0.000,-0.280,0.050,-0.062,-0.312,0.000,351.75,1.44,-96.75,1,,0,0,0,0,0,0,0,0,0,031.044397,-103.534966,1,11
23936,2186.941,50.26,908.85,6.658,19.388,7.756,0.000,-0.310,0.030,0.000,0.125,0.062,351.75,1.44,-96.75,1,,0,0,0,0,0,0,0,0,0,031.044397,-103.534966,1,11
23937,2187.049,50.24,908.81,7.057,19.410,7.756,0.020,-0.280,0.080,-0.062,1.062,0.062,351.69,1.44,-96.75,1,,0,0,0,0,0,0,0,0,0,031.044397,-103.534966,1,11
23938,2187.100,50.30,908.91,6.149,19.390,7.756,-0.010,-0.320,0.090,0.250,1.312,0.125,351.62,1.44,-96.75,1,,0,0,0,0,0,0,0,0,0,031.044397,-103.534966,1,11
23939,2187.150,50.30,908.91,6.149,19.390,7.756,0.030,-0.290,0.090,0.062,0.812,0.062,351.56,1.44,-96.75,1,,0,0,0,0,0,0,0,0,0,031.044397,-103.534966,1,11
23940,2187.201,50.30,908.91,6.066,19.413,7.756,0.070,-0.300,0.030,0.250,0.500,0.062,351.56,1.44,-96.75,1,,0,0,0,0,0,0,0,0,0,031.044397,-103.534966,1,11
23941,2187.254,50.30,908.91,6.066,19.413,7.756,0.070,-0.310,0.000,0.187,-0.062,0.125,351.56,1.44,-96.75,1,,0,0,0,0,0,0,0,0,0,031.044397,-103.534966,1,11
23942,2187.747,50.30,908.94,5.832,19.401,7.756,0.060,-0.290,0.050,0.062,0.625,0.000,351.75,1.44,-96.75,1,,0,0,0,0,0,0,0,0,0,031.044397,-103.534966,1,12
23943,2187.798,50.30,908.93,5.898,19.401,7.756,0.070,-0.330,-0.010,0.250,0.437,0.125,351.75,1.44,-96.75,1,,0,0,0,0,0,0,0,0,0,031.044397,-103.534966,1,12
23944,2187.848,50.30,908.93,5.898,19.401,7.756,0.080,-0.320,0.000,-0.062,0.375,0.000,351.75,1.44,-96.75,1,,0,0,0,0,0,0,0,0,0,031.044397,-103.534966,1,12
23945,2187.899,50.26,908.88,6.409,19.423,7.756,0.100,-0.280,-0.010,0.000,0.187,-0.062,351.75,1.44,-96.75,1,,0,0,0,0,0,0,0,0,0,031.044397,-103.534966,1,12
23946,2187.950,50.26,908.88,6.409,19.423,7.756,0.060,-0.300,0.000,0.000,0.000,-0.125,351.75,1.44,-96.75,1,,0,0,0,0,0,0,0,0,0,031.044397,-103.534966,1,12
23947,2188.001,50.24,908.87,6.455,19.423,7.756,0.040,-0.300,0.020,0.000,-0.375,-0.250,351.75,1.44,-96.75,1,,0,0,0,0,0,0,0,0,0,031.044397,-103.534966,1,12
23948,2188.055,50.24,908.87,6.455,19.423,7.756,0.030,-0.300,0.070,-0.062,-0.875,-0.125,351.75,1.44,-96.75,1,,0,0,0,0,0,0,0,0,0,031.044397,-103.534966,1,12
23949,2188.106,50.30,908.95,5.749,19.413,7.756,0.020,-0.310,0.090,0.000,-1.250,0.125,351.81,1.44,-96.75,1,,0,0,0,0,0,0,0,0,0,031.044397,-103.534966,1,12
23950,2188.157,50.30,908.95,5.749,19.413,7.756,0.020,-0.290,0.060,0.000,-1.500,-0.125,351.87,1.37,-96.75,1,,0,0,0,0,0,0,0,0,0,031.044397,-103.534966,1,12
23951,2188.213,50.30,908.94,5.783,19.413,7.756,0.020,-0.320,0.020,0.187,-1.437,0.062,352.00,1.37,-96.75,1,,0,0,0,0,0,0,0,0,0,031.044397,-103.534966,1,12
23952,2188.265,50.30,908.94,5.783,19.413,7.756,0.040,-0.270,0.030,0.187,-1.062,-0.062,352.06,1.37,-96.75,1,,0,0,0,0,0,0,0,0,0,031.044397,-103.534966,1,12
23953,2188.726,50.30,908.92,5.982,19.425,7.756,0.060,-0.290,0.080,0.250,0.000,0.000,352.31,1.37,-96.81,1,,0,0,0,0,0,0,0,0,0,031.044397,-103.534966,1,12
23954,2188.777,50.30,908.92,5.982,19.425,7.756,0.060,-0.310,0.040,0.312,-1.312,-0.062,352.37,1.37,-96.81,1,,0,0,0,0,0,0,0,0,0,031.044397,-103.534966,1,12
23955,2188.872,50.30,908.87,6.482,19.378,7.756,0.030,-0.310,0.000,0.125,-0.875,-0.062,352.50,1.31,-96.81,1,,0,0,0,0,0,0,0,0,0,031.044397,-103.534966,1,12
23956,2188.924,50.27,908.82,6.943,19.424,7.756,0.010,-0.310,0.010,-0.062,0.000,-0.062,352.50,1.31,-96.81,1,,0,0,0,0,0,0,0,0,0,031.044397,-103.534966,1,12
23957,2188.975,50.27,908.82,6.943,19.424,7.756,0.010,-0.300,0.000,0.062,0.187,-0.125,352.50,1.31,-96.81,1,,0,0,0,0,0,0,0,0,0,031.044397,-103.534966,1,12
23958,2189.026,50.24,908.77,7.424,19.398,7.756,-0.010,-0.310,0.060,0.062,0.000,-0.187,352.50,1.31,-96.81,1,,0,0,0,0,0,0,0,0,0,031.044397,-103.534966,1,12
23959,2189.076,50.24,908.77,7.424,19.398,7.756,0.000,-0.280,0.090,0.000,-0.187,-0.062,352.50,1.31,-96.81,1,,0,0,0,0,0,0,0,0,0,031.044397,-103.534966,1,12
23960,2189.127,50.30,908.90,6.216,19.425,7.756,0.000,-0.290,0.030,0.062,-0.312,0.062,352.50,1.31,-96.81,1,,0,0,0,0,0,0,0,0,0,031.044397,-103.534966,1,12
23961,2189.182,50.30,908.90,6.216,19.425,7.756,-0.010,-0.300,0.020,0.000,-0.375,0.000,352.50,1.31,-96.81,1,,0,0,0,0,0,0,0,0,0,031.044397,-103.534966,1,12
23962,2189.233,50.30,908.86,6.599,19.354,7.756,0.040,-0.300,0.050,-0.062,0.562,0.000,352.50,1.31,-96.81,1,,0,0,0,0,0,0,0,0,0,031.044397,-103.534966,1,12
23963,2189.284,50.30,908.86,6.599,19.354,7.756,0.030,-0.300,0.080,0.000,0.437,0.062,352.50,1.31,-96.81,1,,0,0,0,0,0,0,0,0,0,031.044397,-103.534966,1,12
23964,2189.745,50.30,908.87,6.516,19.437,7.756,0.040,-0.290,0.020,0.250,0.125,0.250,352.56,1.31,-96.81,1,,0,0,0,0,0,0,0,0,0,031.044397,-103.534966,1,12
23965,2189.798,50.30,908.85,6.633,19.425,7.756,0.060,-0.310,-0.020,0.312,0.000,0.125,352.56,1.31,-96.81,1,,0,0,0,0,0,0,0,0,0,031.044397,-103.534966,1,12
23966,2189.851,50.30,908.85,6.633,19.425,7.756,0.070,-0.300,-0.020,0.125,-0.062,0.062,352.56,1.31,-96.81,1,,0,0,0,0,0,0,0,0,0,031.044397,-103.534966,1,12
23967,2189.902,50.26,908.84,6.760,19.447,7.756,0.040,-0.300,-0.020,0.000,0.187,-0.062,352.56,1.31,-96.81,1,,0,0,0,0,0,0,0,0,0,031.044397,-103.534966,1,12
23968,2189.953,50.26,908.84,6.760,19.447,7.756,0.060,-0.300,0.020,0.000,0.187,0.062,352.56,1.31,-96.81,1,,0,0,0,0,0,0,0,0,0,031.044397,-103.534966,1,12
23969,2190.004,50.25,908.85,6.674,19.446,7.756,0.040,-0.290,0.020,-0.062,0.125,-0.062,352.56,1.31,-96.81,1,,0,0,0,0,0,0,0,0,0,031.044397,-103.534966,1,12
23970,2190.054,50.25,908.85,6.674,19.446,7.756,0.000,-0.310,0.000,0.000,0.125,-0.062,352.56,1.31,-96.81,1,,0,0,0,0,0,0,0,0,0,031.044397,-103.534966,1,12
23971,2190.107,50.30,908.96,5.649,19.437,7.756,-0.030,-0.300,0.110,0.125,0.062,0.250,352.56,1.31,-96.81,1,,0,0,0,0,0,0,0,0,0,031.044397,-103.534966,1,12
23972,2190.160,50.30,908.96,5.649,19.437,7.756,0.000,-0.280,0.120,0.062,0.750,-0.125,352.56,1.31,-96.81,1,,0,0,0,0,0,0,0,0,0,031.044397,-103.534966,1,12
23973,2190.212,50.30,908.94,5.849,19.437,7.756,0.040,-0.290,0.110,0.125,0.875,0.125,352.50,1.31,-96.81,1,,0,0,0,0,0,0,0,0,0,031.044397,-103.534966,1,12
23974,2190.262,50.30,908.94,5.849,19.437,7.756,0.110,-0.290,0.040,0.125,1.000,0.062,352.44,1.31,-96.81,1,,0,0,0,0,0,0,0,0,0,031.044397,-103.534966,1,12
23975,2190.313,50.30,908.96,5.665,19.448,7.756,0.110,-0.300,0.020,0.187,0.312,0.000,352.44,1.31,-96.81,1,,0,0,0,0,0,0,0,0,0,031.044397,-103.534966,1,12
23976,2190.809,50.30,908.94,5.832,19.448,7.756,-0.020,-0.290,0.020,0.062,0.312,0.062,352.69,1.31,-96.81,1,,0,0,0,0,0,0,0,0,0,031.044397,-103.534966,1,12
23977,2190.860,50.30,908.94,5.832,19.448,7.756,0.030,-0.250,0.040,0.125,0.812,0.062,352.62,1.31,-96.81,1,,0,0,0,0,0,0,0,0,0,031.044397,-103.534966,1,12
23978,2190.914,50.27,908.94,5.828,19.447,7.756,0.110,-0.280,0.010,0.125,0.625,-0.062,352.62,1.31,-96.81,1,,0,0,0,0,0,0,0,0,0,031.044397,-103.534966,1,12
23979,2190.964,50.27,908.94,5.828,19.447,7.756,0.070,-0.320,-0.050,0.062,0.312,-0.125,352.62,1.31,-96.81,1,,0,0,0,0,0,0,0,0,0,031.044397,-103.534966,1,12
23980,2191.014,50.25,908.84,6.757,19.423,7.756,0.060,-0.310,0.010,-0.125,-0.125,-0.062,352.62,1.31,-96.81,1,,0,0,0,0,0,0,0,0,0,031.044397,-103.534966,1,12
23981,2191.067,50.25,908.84,6.757,19.423,7.756,0.030,-0.310,0.030,-0.062,-0.062,-0.187,352.62,1.31,-96.81,1,,0,0,0,0,0,0,0,0,0,031.044397,-103.534966,1,12
23982,2191.119,50.31,908.96,5.634,19.473,7.756,0.050,-0.290,0.140,0.000,0.500,-0.062,352.62,1.31,-96.81,1,,0,0,0,0,0,0,0,0,0,031.044397,-103.534966,1,12
23983,2191.169,50.31,908.96,5.634,19.473,7.756,0.010,-0.270,0.160,0.125,0.687,-0.062,352.56,1.31,-96.81,1,,0,0,0,0,0,0,0,0,0,031.044397,-103.534966,1,12
23984,2191.221,50.30,908.99,5.400,19.496,7.756,0.000,-0.340,0.150,0.187,0.500,-0.062,352.56,1.31,-96.81,1,,0,0,0,0,0,0,0,0,0,031.044397,-103.534966,1,12
23985,2191.329,50.30,908.90,6.183,19.460,7.756,0.060,-0.290,0.000,0.187,-1.250,-0.062,352.62,1.31,-96.81,1,,0,0,0,0,0,0,0,0,0,031.044397,-103.534966,1,12
23986,2191.790,50.31,908.96,5.617,19.461,7.756,0.040,-0.290,0.080,0.125,-0.812,0.187,352.75,1.31,-96.81,1,,0,0,0,0,0,0,0,0,0,031.044397,-103.534966,1,12
23987,2191.841,50.30,908.93,5.915,19.473,7.756,0.060,-0.280,0.070,0.125,-0.125,0.187,352.75,1.31,-96.81,1,,0,0,0,0,0,0,0,0,0,031.044397,-103.534966,1,12
23988,2191.926,50.26,908.90,6.243,19.542,7.756,0.050,-0.280,0.040,0.062,0.437,0.062,352.75,1.31,-96.81,1,,0,0,0,0,0,0,0,0,0,031.044397,-103.534973,1,12
23989,2191.977,50.26,908.90,6.243,19.542,7.756,0.040,-0.300,0.010,-0.062,0.312,-0.125,352.75,1.31,-96.81,1,,0,0,0,0,0,0,0,0,0,031.044397,-103.534973,1,12
23990,2192.028,50.26,908.86,6.592,19.446,7.756,0.040,-0.280,0.000,-0.062,-0.250,-0.125,352.75,1.31,-96.81,1,,0,0,0,0,0,0,0,0,0,031.044397,-103.534973,1,12
23991,2192.079,50.26,908.86,6.592,19.446,7.756,0.030,-0.310,0.100,-0.062,-0.812,-0.125,352.81,1.31,-96.81,1,,0,0,0,0,0,0,0,0,0,031.044397,-103.534973,1,12
23992,2192.129,50.30,908.92,6.000,19.531,7.756,0.020,-0.260,0.090,0.000,-0.437,-0.125,352.81,1.31,-96.81,1,,0,0,0,0,0,0,0,0,0,031.044397,-103.534973,1,12
23993,2192.179,50.30,908.92,6.000,19.531,7.756,0.010,-0.290,0.140,0.062,-0.375,0.062,352.81,1.31,-96.81,1,,0,0,0,0,0,0,0,0,0,031.044397,-103.534973,1,12
23994,2192.233,50.30,908.93,5.932,19.496,7.756,0.030,-0.270,0.110,0.500,0.250,0.000,352.81,1.31,-96.81,1,,0,0,0,0,0,0,0,0,0,031.044397,-103.534973,1,12
23995,2192.285,50.30,908.93,5.932,19.496,7.756,0.030,-0.290,0.020,0.250,-0.125,0.000,352.81,1.31,-96.81,1,,0,0,0,0,0,0,0,0,0,031.044397,-103.534973,1,12
23996,2192.336,50.31,908.91,6.151,19.473,7.756,0.060,-0.290,-0.050,0.187,-0.437,0.000,352.81,1.31,-96.81,1,,0,0,0,0,0,0,0,0,0,031.044397,-103.534973,1,12
23997,2192.798,50.31,908.96,5.750,19.520,7.756,0.110,-0.280,0.020,0.062,0.062,-0.062,352.75,1.31,-96.81,1,,0,0,0,0,0,0,0,0,0,031.044397,-103.534973,1,12
23998,2192.851,50.31,908.95,5.750,19.520,7.756,0.090,-0.300,0.050,0.062,-0.437,0.062,352.75,1.31,-96.81,1,,0,0,0,0,0,0,0,0,0,031.044397,-103.534973,1,12
23999,2192.904,50.26,908.91,6.093,19.471,7.756,0.070,-0.280,0.020,0.062,-0.437,0.000,352.75,1.31,-96.81,1,,0,0,0,0,0,0,0,0,0,031.044397,-103.534973,1,12
24000,2192.955,50.26,908.91,6.093,19.471,7.756,0.090,-0.290,0.000,0.125,-0.312,-0.062,352.75,1.31,-96.81,1,,0,0,0,0,0,0,0,0,0,031.044397,-103.534973,1,12
24001,2193.006,50.25,908.87,6.493,19.471,7.756,0.050,-0.280,0.030,0.062,-0.375,0.000,352.75,1.31,-96.81,1,,0,0,0,0,0,0,0,0,0,031.044397,-103.534973,1,12
24002,2193.056,50.25,908.87,6.493,19.471,7.756,0.050,-0.300,0.080,0.187,-0.875,-0.125,352.75,1.31,-96.81,1,,0,0,0,0,0,0,0,0,0,031.044397,-103.534973,1,12
24003,2193.106,50.30,908.92,6.016,19.484,7.756,0.010,-0.290,0.030,0.062,-1.562,-0.062,352.81,1.31,-96.81,1,,0,0,0,0,0,0,0,0,0,031.044397,-103.534973,1,12
24004,2193.160,50.30,908.92,6.016,19.484,7.756,-0.010,-0.280,0.040,-0.062,-1.750,0.000,352.94,1.31,-96.81,1,,0,0,0,0,0,0,0,0,0,031.044397,-103.534973,1,12
24005,2193.210,50.30,908.90,6.233,19.473,7.756,-0.010,-0.300,0.050,0.000,-1.562,0.062,353.00,1.31,-96.81,1,,0,0,0,0,0,0,0,0,0,031.044397,-103.534973,1,12
24006,2193.262,50.30,908.90,6.233,19.473,7.756,0.000,-0.290,0.060,0.062,-1.125,0.125,353.06,1.25,-96.81,1,,0,0,0,0,0,0,0,0,0,031.044397,-103.534973,1,12
